time accel_x accel_y accel_z gyro_x gyro_y gyro_z
6256429 +1.003418 -0.004395 +0.027344 -3.841464 +1.158537 +2.134146
6256431 +1.005859 -0.003418 +0.021484 -3.719512 +0.975610 +2.195122
6256433 +1.006348 -0.002441 +0.020508 -3.902439 +0.670732 +2.134146
6256435 +1.004883 +0.004883 +0.023926 -3.963415 +0.853659 +2.134146
6256437 +1.002441 +0.004883 +0.033203 -3.841464 +0.670732 +2.134146
6256439 +1.013184 -0.000977 +0.023438 -3.719512 +0.975610 +2.012195
6256441 +1.005859 +0.000488 +0.024902 -3.963415 +0.792683 +2.012195
6256443 +1.011719 +0.000977 +0.025391 -3.841464 +0.853659 +2.134146
6256445 +1.003418 -0.000977 +0.032227 -4.024390 +0.914634 +2.012195
6256447 +1.003906 +0.002441 +0.020508 -3.902439 +0.731707 +2.073171
6256449 +1.005371 +0.003418 +0.025879 -3.841464 +0.914634 +2.256098
6256451 +1.008301 -0.002930 +0.031250 -3.719512 +0.731707 +2.195122
6256453 +1.007324 +0.003418 +0.033203 -3.902439 +0.914634 +2.012195
6256455 +1.005859 +0.001465 +0.030273 -4.024390 +1.036585 +2.256098
6256457 +1.010742 -0.003418 +0.026367 -3.902439 +0.975610 +2.012195
6256459 +1.004883 +0.000488 +0.025391 -3.780488 +0.792683 +2.195122
6256461 +1.005859 -0.000488 +0.029297 -3.902439 +0.670732 +2.256098
6256463 +1.009766 -0.000977 +0.033203 -3.841464 +0.853659 +2.195122
6256465 +1.010742 +0.000000 +0.027344 -3.841464 +0.914634 +2.073171
6256467 +1.003906 +0.000000 +0.030273 -3.902439 +0.914634 +2.195122
6256469 +1.001953 -0.000488 +0.020996 -4.024390 +1.097561 +2.073171
6256471 +1.007324 -0.005859 +0.020508 -3.963415 +0.792683 +2.073171
6256473 +1.009766 -0.001953 +0.029785 -3.963415 +0.914634 +2.134146
6256475 +1.008301 -0.003906 +0.031738 -3.841464 +0.975610 +2.073171
6256477 +1.004395 -0.006836 +0.027832 -3.780488 +0.914634 +2.134146
6256479 +1.005371 +0.000000 +0.025391 -3.902439 +0.914634 +2.134146
6256481 +1.007812 +0.000488 +0.026367 -3.902439 +0.792683 +2.012195
6256483 +1.003418 +0.000488 +0.035156 -3.719512 +0.975610 +1.890244
6256485 +1.010254 -0.002441 +0.024414 -3.902439 +0.792683 +1.829268
6256487 +1.006348 +0.001953 +0.018555 -3.902439 +1.036585 +2.134146
6256489 +1.004883 +0.001465 +0.035645 -3.841464 +0.670732 +2.195122
6256491 +1.004395 +0.002441 +0.032227 -3.780488 +0.853659 +2.195122
6256493 +1.008301 -0.002930 +0.026367 -3.902439 +0.914634 +2.012195
6256495 +1.004395 +0.000000 +0.033203 -3.841464 +0.914634 +1.951220
6256497 +1.005859 +0.001465 +0.024414 -3.902439 +0.853659 +1.951220
6256499 +1.006836 -0.006836 +0.031738 -3.902439 +0.792683 +2.195122
6256501 +1.004883 +0.003906 +0.023926 -3.902439 +0.914634 +2.134146
6256503 +1.016113 +0.003906 +0.042480 -3.902439 +0.853659 +2.073171
6256505 +1.006836 -0.002441 +0.031250 -3.841464 +0.670732 +2.195122
6256507 +1.004883 -0.004395 +0.027344 -3.841464 +0.792683 +1.890244
6256509 +1.012695 -0.003906 +0.032227 -3.841464 +0.914634 +2.073171
6256511 +1.008301 +0.008301 +0.025879 -3.780488 +0.853659 +2.073171
6256513 +1.001953 +0.001465 +0.028809 -3.841464 +0.792683 +2.073171
6256515 +1.005371 +0.001465 +0.024902 -3.719512 +0.853659 +2.012195
6256517 +1.006836 +0.003418 +0.018066 -3.902439 +0.914634 +2.012195
6256519 +1.002930 +0.004395 +0.026367 -3.902439 +0.853659 +2.195122
6256521 +1.007812 +0.006836 +0.029297 -3.780488 +0.853659 +2.073171
6256523 +1.003906 +0.004395 +0.026855 -3.658537 +0.792683 +2.134146
6256525 +1.011230 +0.004395 +0.032227 -3.780488 +0.731707 +2.012195
6256527 +1.003418 +0.000488 +0.028320 -4.024390 +0.853659 +2.012195
6256529 +1.009766 -0.000488 +0.018066 -3.963415 +0.975610 +2.012195
6256531 +1.011719 +0.004883 +0.025391 -3.780488 +0.731707 +1.951220
6256533 +1.009766 +0.000488 +0.028809 -3.902439 +0.853659 +2.134146
6256535 +1.005371 +0.005371 +0.026855 -3.841464 +0.975610 +2.012195
6256537 +0.999512 +0.001953 +0.019043 -3.841464 +1.036585 +2.256098
6256539 +1.005371 -0.006348 +0.033691 -3.963415 +0.914634 +2.073171
6256541 +1.009766 +0.000977 +0.028320 -3.719512 +0.853659 +2.256098
6256543 +1.005859 -0.000488 +0.027832 -3.841464 +0.914634 +1.951220
6256545 +1.007812 +0.000977 +0.023438 -3.841464 +0.853659 +1.951220
6256547 +1.002930 +0.002930 +0.028320 -3.841464 +0.792683 +2.012195
6256549 +1.003906 +0.007324 +0.026367 -3.963415 +0.975610 +2.073171
6256551 +1.005859 +0.006836 +0.028320 -3.841464 +0.914634 +2.073171
6256553 +1.005371 +0.004883 +0.027344 -3.902439 +0.975610 +1.951220
6256555 +1.008789 +0.009277 +0.022949 -3.658537 +0.914634 +2.134146
6256557 +1.008789 -0.001953 +0.020996 -3.841464 +0.731707 +2.256098
6256559 +1.007324 -0.001465 +0.023926 -4.085366 +0.914634 +2.012195
6256561 +1.005371 +0.000977 +0.029785 -3.963415 +0.853659 +2.134146
6256563 +1.005859 +0.000488 +0.026367 -3.841464 +0.853659 +2.134146
6256565 +1.008301 -0.000977 +0.021973 -3.841464 +1.097561 +2.012195
6256567 +1.007812 -0.002441 +0.033203 -3.780488 +0.914634 +2.134146
6256569 +1.008789 -0.002930 +0.023926 -3.902439 +0.975610 +2.012195
6256571 +1.008789 -0.001465 +0.034180 -3.902439 +0.914634 +2.560976
6256573 +1.006836 +0.003418 +0.035645 -3.902439 +0.975610 +2.073171
6256575 +1.000488 +0.003418 +0.022461 -3.780488 +0.914634 +2.134146
6256577 +1.003418 -0.000977 +0.022461 -4.024390 +0.914634 +2.073171
6256579 +1.007812 -0.002441 +0.032715 -3.902439 +1.036585 +1.890244
6256581 +1.011719 +0.000000 +0.020020 -3.841464 +0.853659 +2.195122
6256583 +1.006836 +0.000977 +0.036621 -3.719512 +0.853659 +2.012195
6256585 +1.009766 -0.010254 +0.033691 -3.841464 +1.036585 +2.073171
6256588 +1.004395 -0.006348 +0.024414 -3.963415 +0.792683 +2.012195
6256590 +1.003418 -0.001953 +0.020996 -3.841464 +0.792683 +2.134146
6256592 +1.008789 -0.002441 +0.026855 -3.780488 +0.914634 +2.134146
6256594 +1.008301 +0.002441 +0.030762 -3.841464 +0.853659 +2.012195
6256596 +1.005371 -0.008301 +0.020508 -3.719512 +0.792683 +2.134146
6256598 +1.009766 -0.002441 +0.025879 -3.902439 +0.731707 +2.012195
6256600 +1.010742 +0.005371 +0.026855 -3.780488 +0.853659 +2.012195
6256602 +1.006348 -0.000488 +0.031738 -3.841464 +0.914634 +2.073171
6256604 +1.013672 -0.003906 +0.028320 -3.902439 +0.731707 +2.134146
6256606 +1.007324 +0.001953 +0.026855 -3.963415 +0.975610 +2.012195
6256608 +1.007812 -0.002441 +0.021973 -3.902439 +0.914634 +2.012195
6256610 +1.010742 +0.003906 +0.023438 -3.780488 +0.792683 +2.012195
6256612 +1.001953 +0.001953 +0.019043 -4.024390 +0.853659 +2.134146
6256614 +1.006348 +0.005371 +0.031250 -3.902439 +0.975610 +2.134146
6256616 +1.004883 +0.000977 +0.029785 -3.841464 +0.731707 +1.951220
6256618 +1.011230 +0.003906 +0.020508 -3.902439 +0.975610 +2.317073
6256620 +1.003418 +0.003418 +0.031738 -3.902439 +0.792683 +1.951220
6256622 +1.005859 +0.003906 +0.026855 -3.902439 +0.914634 +2.195122
6256624 +1.006836 +0.001953 +0.022949 -4.085366 +0.914634 +2.012195
6256626 +1.010254 +0.001953 +0.025879 -3.780488 +0.609756 +1.951220
6256628 +1.010742 -0.004883 +0.033203 -3.963415 +0.792683 +2.012195
6256630 +1.006836 +0.000000 +0.027832 -3.841464 +0.914634 +2.012195
6256632 +1.008301 -0.000977 +0.028320 -3.963415 +0.853659 +2.073171
6256634 +1.010254 +0.000488 +0.025391 -3.963415 +0.914634 +2.012195
6256636 +1.010254 -0.002441 +0.036133 -3.902439 +0.914634 +2.012195
6256638 +1.005371 +0.003418 +0.040039 -3.841464 +0.670732 +2.012195
6256640 +1.007324 -0.001465 +0.029297 -3.780488 +0.853659 +2.256098
6256642 +1.009277 -0.003418 +0.023438 -4.024390 +0.975610 +2.134146
6256644 +1.002930 -0.000977 +0.022949 -3.902439 +0.792683 +2.012195
6256646 +1.006836 +0.000488 +0.027832 -3.841464 +0.914634 +2.317073
6256648 +1.004395 -0.005859 +0.025879 -3.902439 +1.036585 +2.012195
6256650 +1.005859 +0.000977 +0.037598 -3.963415 +0.914634 +2.195122
6256652 +1.008301 +0.002441 +0.036621 -3.780488 +0.975610 +2.134146
6256654 +1.005859 -0.003418 +0.029785 -3.841464 +0.731707 +2.134146
6256656 +1.003906 -0.004883 +0.029785 -3.841464 +0.609756 +2.073171
6256658 +1.010742 -0.006836 +0.031250 -3.902439 +0.731707 +2.012195
6256660 +1.002441 -0.003418 +0.032715 -3.780488 +0.792683 +1.951220
6256662 +1.007812 -0.003418 +0.023438 -3.841464 +0.792683 +2.073171
6256664 +1.002441 -0.004395 +0.032715 -3.841464 +0.914634 +1.951220
6256666 +1.003418 -0.003906 +0.025879 -3.841464 +0.853659 +2.134146
6256668 +1.006348 +0.003418 +0.033203 -3.658537 +0.914634 +1.951220
6256670 +1.010742 +0.000488 +0.028809 -3.780488 +1.036585 +2.195122
6256672 +1.007812 -0.000488 +0.018555 -3.902439 +0.609756 +2.012195
6256674 +1.007812 -0.006836 +0.028809 -3.719512 +0.975610 +2.195122
6256676 +1.006836 +0.000000 +0.021484 -3.902439 +0.914634 +2.256098
6256678 +1.003418 -0.003418 +0.033691 -3.780488 +0.914634 +2.073171
6256680 +1.004395 -0.001953 +0.016602 -3.719512 +0.792683 +2.256098
6256682 +1.004395 +0.006836 +0.025879 -3.902439 +0.975610 +1.951220
6256684 +1.007324 +0.000000 +0.030273 -3.841464 +0.792683 +2.134146
6256686 +1.009766 +0.002441 +0.023438 -3.780488 +0.914634 +2.134146
6256688 +1.007324 +0.000977 +0.024902 -3.841464 +0.853659 +2.012195
6256690 +1.007324 +0.003906 +0.035156 -3.780488 +0.731707 +2.317073
6256692 +1.007324 -0.003906 +0.027832 -3.841464 +0.731707 +2.073171
6256694 +1.011719 +0.005371 +0.020508 -3.841464 +0.792683 +2.317073
6256696 +1.005371 +0.006836 +0.025879 -3.841464 +0.792683 +2.134146
6256698 +1.005859 +0.000000 +0.023926 -3.902439 +1.036585 +2.195122
6256700 +1.011230 +0.000977 +0.024414 -3.780488 +0.975610 +2.134146
6256702 +1.009277 +0.000000 +0.021973 -3.841464 +0.853659 +2.134146
6256704 +1.005859 -0.000488 +0.023438 -3.841464 +0.853659 +2.134146
6256706 +1.008789 +0.003906 +0.019043 -3.780488 +0.731707 +2.134146
6256708 +1.004395 +0.004395 +0.019043 -3.963415 +1.036585 +2.195122
6256710 +1.006348 +0.002441 +0.033691 -3.841464 +0.731707 +2.378049
6256712 +1.008301 +0.004883 +0.017090 -3.902439 +0.670732 +2.134146
6256714 +1.006348 -0.005859 +0.020996 -3.902439 +0.853659 +2.256098
6256716 +1.012207 +0.001465 +0.021973 -3.902439 +0.792683 +2.134146
6256718 +1.006348 +0.000977 +0.021484 -3.719512 +0.670732 +2.012195
6256720 +1.008789 +0.004395 +0.026855 -3.902439 +0.914634 +2.073171
6256722 +1.006348 -0.001465 +0.017578 -3.780488 +0.914634 +2.195122
6256724 +1.008301 +0.003906 +0.037109 -3.963415 +0.975610 +1.890244
6256726 +1.010742 -0.000488 +0.025391 -3.841464 +0.914634 +2.256098
6256728 +1.008301 +0.004883 +0.021484 -3.902439 +0.792683 +2.256098
6256730 +1.003418 +0.001465 +0.022949 -3.780488 +0.853659 +2.012195
6256732 +1.007812 +0.008301 +0.028809 -3.780488 +0.853659 +2.012195
6256734 +1.006836 -0.002930 +0.028809 -4.024390 +0.914634 +2.195122
6256736 +1.008789 +0.001953 +0.027344 -3.902439 +0.792683 +2.317073
6256738 +1.011230 +0.001953 +0.021484 -3.719512 +0.914634 +2.134146
6256740 +1.005371 -0.002930 +0.021484 -3.902439 +0.975610 +1.951220
6256742 +1.004883 +0.006348 +0.024414 -3.963415 +0.853659 +2.256098
6256744 +1.003906 -0.000488 +0.027344 -3.841464 +0.914634 +2.134146
6256746 +1.005859 +0.004395 +0.026855 -3.902439 +0.670732 +2.134146
6256748 +1.000000 +0.002441 +0.027832 -3.841464 +0.853659 +2.256098
6256750 +1.008789 -0.003906 +0.017578 -4.024390 +0.975610 +2.073171
6256752 +1.003418 +0.001465 +0.024902 -3.841464 +1.097561 +2.195122
6256754 +1.006836 +0.005371 +0.031250 -3.841464 +0.670732 +2.317073
6256756 +1.009766 -0.003906 +0.032715 -3.963415 +0.853659 +1.829268
6256758 +1.011719 -0.001465 +0.029297 -3.963415 +0.914634 +2.378049
6256760 +1.006348 -0.006836 +0.026367 -3.719512 +0.975610 +2.134146
6256762 +1.003418 -0.001465 +0.032715 -3.902439 +1.036585 +2.073171
6256764 +1.005859 -0.000488 +0.021484 -3.963415 +0.792683 +2.195122
6256766 +1.007812 +0.001953 +0.029785 -3.841464 +0.853659 +2.378049
6256768 +1.010742 +0.004395 +0.028809 -3.902439 +0.914634 +2.195122
6256770 +1.003906 -0.000977 +0.022461 -3.963415 +0.731707 +2.134146
6256772 +1.006348 -0.002441 +0.022949 -3.841464 +0.914634 +2.012195
6256774 +1.004883 +0.006836 +0.021973 -3.902439 +0.853659 +2.012195
6256776 +1.005371 +0.003418 +0.026855 -3.963415 +0.853659 +2.134146
6256778 +1.007324 +0.007812 +0.027344 -3.780488 +0.914634 +2.195122
6256780 +1.013672 +0.007324 +0.025879 -3.780488 +0.853659 +2.073171
6256782 +1.005859 +0.002441 +0.028320 -3.841464 +0.853659 +2.195122
6256784 +1.006348 +0.004883 +0.030273 -3.841464 +0.914634 +2.195122
6256786 +1.004883 +0.002930 +0.025391 -3.841464 +0.792683 +2.134146
6256788 +1.002930 +0.003906 +0.030762 -3.963415 +0.609756 +2.195122
6256790 +1.008789 +0.002930 +0.034180 -3.963415 +0.792683 +2.073171
6256792 +1.006348 -0.001953 +0.021973 -3.780488 +0.853659 +2.012195
6256794 +1.003906 +0.000488 +0.021973 -3.902439 +0.792683 +2.073171
6256796 +1.009277 +0.003906 +0.022461 -3.963415 +0.914634 +1.890244
6256798 +1.013672 +0.000977 +0.030273 -3.841464 +0.670732 +2.073171
6256800 +1.001953 +0.004395 +0.030273 -3.902439 +1.097561 +1.890244
6256802 +1.009766 -0.002441 +0.028809 -3.963415 +0.792683 +2.134146
6256804 +1.011230 +0.001465 +0.028809 -3.841464 +0.853659 +2.134146
6256806 +1.005859 +0.005859 +0.020508 -3.902439 +0.914634 +2.073171
6256809 +1.009766 +0.001465 +0.021973 -3.902439 +0.914634 +2.195122
6256811 +1.007324 -0.000488 +0.021973 -3.963415 +0.975610 +1.890244
6256813 +1.007324 -0.004883 +0.029785 -3.902439 +0.853659 +2.073171
6256815 +1.006348 -0.003906 +0.022949 -3.963415 +0.731707 +2.256098
6256817 +1.001953 +0.000000 +0.032227 -3.902439 +0.914634 +2.012195
6256819 +1.006348 +0.000488 +0.030762 -3.902439 +0.853659 +2.195122
6256821 +1.000000 -0.000488 +0.021973 -3.841464 +0.731707 +1.890244
6256823 +1.005859 -0.000488 +0.027832 -3.841464 +0.975610 +2.256098
6256825 +1.007324 -0.000977 +0.022949 -3.902439 +0.670732 +2.012195
6256827 +1.005371 +0.000000 +0.026855 -3.963415 +1.158537 +2.134146
6256829 +1.006836 -0.004883 +0.032227 -3.780488 +0.853659 +2.073171
6256831 +1.009277 +0.002441 +0.024414 -4.024390 +0.731707 +1.646341
6256833 +1.006348 -0.005371 +0.033691 -3.902439 +0.853659 +1.951220
6256835 +1.008789 +0.000488 +0.020508 -3.902439 +0.975610 +2.073171
6256837 +1.012695 +0.001465 +0.033691 -3.841464 +0.731707 +2.134146
6256839 +1.007324 -0.000977 +0.023438 -3.841464 +0.853659 +2.195122
6256841 +1.010742 -0.001465 +0.031250 -3.841464 +1.036585 +2.012195
6256843 +1.005859 -0.000488 +0.020508 -3.902439 +0.914634 +2.073171
6256845 +1.004883 +0.004395 +0.033203 -3.902439 +0.792683 +2.012195
6256847 +1.003906 +0.000977 +0.026367 -3.902439 +0.914634 +2.256098
6256849 +1.007812 +0.002441 +0.021973 -3.963415 +0.914634 +2.134146
6256851 +1.007812 -0.000977 +0.036133 -3.780488 +0.975610 +2.073171
6256853 +1.004395 +0.004395 +0.028320 -3.719512 +0.731707 +2.134146
6256855 +1.007812 +0.000977 +0.020996 -3.902439 +0.914634 +2.012195
6256857 +1.008789 +0.002441 +0.028320 -3.902439 +0.914634 +2.012195
6256859 +1.012207 +0.000488 +0.024414 -3.780488 +0.853659 +2.073171
6256861 +1.010742 +0.000000 +0.020996 -3.963415 +0.975610 +2.134146
6256863 +1.009766 +0.003906 +0.030273 -3.719512 +0.731707 +2.134146
6256865 +1.005371 +0.004883 +0.024414 -3.780488 +0.914634 +2.195122
6256867 +1.005859 +0.001465 +0.030273 -3.780488 +0.792683 +2.073171
6256869 +1.004395 +0.001465 +0.023438 -3.841464 +0.792683 +2.073171
6256871 +1.002441 +0.003906 +0.026855 -3.963415 +0.853659 +2.317073
6256873 +1.007324 +0.005859 +0.026367 -3.780488 +0.792683 +1.951220
6256875 +1.007324 -0.000977 +0.023438 -3.902439 +0.853659 +1.890244
6256877 +1.006348 +0.001465 +0.025391 -3.963415 +0.792683 +1.829268
6256879 +1.005371 -0.005371 +0.016113 -3.719512 +0.670732 +2.256098
6256881 +1.005859 +0.006836 +0.021973 -3.719512 +0.670732 +2.134146
6256883 +1.009277 +0.000977 +0.025391 -3.902439 +0.731707 +2.195122
6256885 +1.004395 +0.001953 +0.016602 -3.902439 +0.914634 +2.195122
6256887 +1.011230 +0.004395 +0.031250 -3.902439 +0.914634 +1.890244
6256889 +1.001465 -0.000977 +0.026367 -3.902439 +0.914634 +2.134146
6256891 +0.996582 -0.003906 +0.023926 -4.024390 +0.731707 +2.073171
6256893 +1.008301 +0.002441 +0.020508 -3.841464 +0.731707 +2.012195
6256895 +1.011230 +0.003906 +0.027344 -4.024390 +1.036585 +1.951220
6256897 +1.008301 -0.002441 +0.023926 -3.780488 +0.792683 +2.073171
6256899 +1.008789 +0.000000 +0.027832 -3.841464 +0.975610 +2.256098
6256901 +1.006836 +0.003906 +0.031738 -3.902439 +0.914634 +2.073171
6256903 +1.010254 -0.002930 +0.029297 -3.597561 +0.853659 +2.195122
6256905 +1.003906 -0.002930 +0.014648 -3.780488 +0.792683 +1.951220
6256907 +1.003418 -0.005859 +0.026855 -3.841464 +0.975610 +2.195122
6256909 +1.008789 -0.001465 +0.031738 -3.841464 +0.975610 +2.195122
6256911 +1.009766 -0.004395 +0.032715 -3.841464 +0.792683 +2.073171
6256913 +1.009766 +0.001953 +0.021484 -3.841464 +0.914634 +2.012195
6256915 +1.006836 -0.000488 +0.027832 -3.902439 +0.853659 +2.256098
6256917 +0.997559 +0.000977 +0.029297 -3.841464 +0.670732 +1.951220
6256919 +1.004883 -0.000977 +0.031738 -3.963415 +0.792683 +2.073171
6256921 +1.005859 +0.004883 +0.030762 -3.841464 +0.731707 +2.134146
6256923 +1.004395 +0.004883 +0.029297 -3.963415 +0.853659 +2.012195
6256925 +1.004395 +0.000488 +0.025879 -3.963415 +0.731707 +2.195122
6256927 +1.005859 +0.000488 +0.026367 -3.902439 +0.853659 +2.073171
6256929 +1.004883 -0.003906 +0.026367 -3.658537 +0.853659 +2.073171
6256931 +1.005371 -0.000977 +0.024902 -3.963415 +1.036585 +2.134146
6256933 +1.009277 +0.003906 +0.020020 -3.841464 +0.853659 +2.134146
6256935 +1.006348 +0.005371 +0.022949 -3.963415 +0.792683 +2.012195
6256937 +1.010254 -0.000488 +0.036621 -3.780488 +0.853659 +2.195122
6256939 +1.004883 -0.002930 +0.026855 -3.902439 +0.731707 +2.073171
6256941 +1.004395 -0.006836 +0.017578 -3.780488 +1.036585 +1.890244
6256943 +1.003906 +0.004395 +0.026855 -3.780488 +0.792683 +2.317073
6256945 +1.005859 +0.000977 +0.031250 -3.841464 +0.670732 +2.012195
6256947 +1.006348 -0.002930 +0.031250 -3.902439 +0.853659 +1.768293
6256949 +1.005859 +0.004395 +0.021973 -3.902439 +0.914634 +2.195122
6256951 +1.012695 +0.002441 +0.031738 -3.841464 +0.792683 +2.073171
6256953 +1.010254 -0.003906 +0.022949 -3.963415 +0.914634 +2.134146
6256955 +1.000000 -0.005371 +0.029297 -3.780488 +0.914634 +2.195122
6256957 +1.009766 -0.006836 +0.026367 -3.780488 +0.914634 +2.195122
6256959 +1.003906 +0.000977 +0.021484 -4.024390 +0.792683 +2.073171
6256961 +1.001953 +0.002441 +0.028320 -3.719512 +0.792683 +2.134146
6256963 +1.002441 -0.001465 +0.028320 -3.902439 +0.853659 +2.073171
6256965 +1.003906 +0.005859 +0.019043 -3.902439 +0.853659 +2.073171
6256967 +1.009277 +0.003418 +0.024902 -3.902439 +0.853659 +2.134146
6256969 +1.004883 +0.002441 +0.028320 -3.902439 +0.914634 +2.195122
6256971 +1.009766 -0.001465 +0.022949 -3.902439 +1.036585 +2.134146
6256973 +1.006836 +0.000000 +0.026855 -3.963415 +0.853659 +2.256098
6256975 +1.004883 +0.000000 +0.019531 -3.902439 +0.853659 +2.134146
6256977 +1.003418 -0.001465 +0.028809 -3.780488 +0.670732 +2.012195
6256979 +1.011230 +0.005859 +0.032227 -3.963415 +1.097561 +2.134146
6256981 +1.007812 +0.000488 +0.020996 -3.902439 +0.792683 +2.134146
6256983 +1.009277 +0.004395 +0.022949 -3.902439 +0.731707 +2.012195
6256985 +1.006836 +0.002930 +0.020996 -3.963415 +0.853659 +2.256098
6256987 +1.004395 +0.002441 +0.029785 -3.841464 +0.975610 +2.195122
6256989 +1.011719 +0.000000 +0.027344 -3.841464 +0.914634 +2.317073
6256991 +1.005859 +0.001465 +0.023438 -3.841464 +0.731707 +2.195122
6256993 +1.008789 +0.000977 +0.023926 -3.902439 +0.792683 +2.134146
6256995 +1.008301 +0.003418 +0.021973 -4.085366 +0.914634 +2.073171
6256997 +1.007812 -0.002441 +0.026855 -3.780488 +0.853659 +1.768293
6256999 +1.004883 +0.000000 +0.026367 -3.780488 +0.914634 +1.951220
6257001 +1.006348 -0.002930 +0.031250 -3.963415 +0.853659 +2.012195
6257003 +1.008789 -0.003418 +0.028809 -3.841464 +0.792683 +2.134146
6257005 +1.008301 -0.002930 +0.031250 -3.963415 +0.853659 +2.134146
6257007 +1.004883 +0.000488 +0.027832 -3.780488 +0.792683 +1.890244
6257009 +1.004883 -0.000488 +0.029785 -3.902439 +1.036585 +2.317073
6257011 +1.008301 +0.002441 +0.031250 -3.841464 +0.975610 +2.012195
6257013 +1.008301 -0.002441 +0.030273 -3.841464 +0.914634 +2.012195
6257015 +1.014648 -0.003418 +0.026855 -3.841464 +0.792683 +2.134146
6257017 +1.008301 +0.005371 +0.020020 -3.719512 +0.853659 +2.256098
6257019 +1.007812 -0.003418 +0.033691 -3.902439 +0.853659 +2.012195
6257021 +1.002930 +0.006836 +0.030273 -3.902439 +0.731707 +1.951220
6257023 +1.006836 -0.004883 +0.034180 -3.841464 +0.609756 +2.256098
6257025 +1.010254 +0.001465 +0.022949 -3.902439 +0.853659 +2.073171
6257027 +1.008789 -0.001465 +0.022461 -3.902439 +0.853659 +2.012195
6257029 +1.008301 +0.003418 +0.030762 -3.902439 +0.853659 +2.195122
6257032 +1.010742 -0.006348 +0.026855 -3.902439 +0.914634 +2.073171
6257034 +1.006836 -0.000488 +0.020508 -3.963415 +0.792683 +2.134146
6257036 +1.003906 -0.004395 +0.027344 -3.719512 +0.975610 +2.195122
6257038 +1.006348 +0.004883 +0.022461 -3.719512 +0.731707 +2.012195
6257040 +1.009277 +0.001953 +0.028809 -3.902439 +0.731707 +1.890244
6257042 +1.006836 +0.003418 +0.026367 -3.902439 +0.853659 +2.134146
6257044 +1.008789 +0.000977 +0.022461 -3.841464 +1.036585 +2.195122
6257046 +1.005859 -0.000977 +0.021973 -3.841464 +0.792683 +1.951220
6257048 +1.008789 +0.003906 +0.022949 -3.902439 +0.792683 +2.195122
6257050 +1.004883 -0.002441 +0.024902 -3.902439 +0.792683 +2.195122
6257052 +1.012207 -0.000977 +0.026367 -3.902439 +0.914634 +2.195122
6257054 +1.006836 -0.000977 +0.019531 -3.719512 +0.731707 +2.256098
6257056 +1.006836 +0.001953 +0.028320 -3.658537 +0.853659 +2.195122
6257058 +1.010254 +0.001953 +0.025391 -3.719512 +0.670732 +2.012195
6257060 +1.006348 -0.000488 +0.029297 -3.902439 +0.853659 +2.134146
6257062 +1.009766 +0.000488 +0.021973 -3.780488 +0.853659 +2.073171
6257064 +1.006836 -0.003418 +0.021973 -3.780488 +1.036585 +2.195122
6257066 +1.000977 +0.001953 +0.020508 -3.841464 +0.792683 +2.073171
6257068 +1.004395 +0.002441 +0.027344 -3.841464 +0.609756 +1.951220
6257070 +1.005859 +0.000488 +0.020996 -4.024390 +0.792683 +2.195122
6257072 +1.006348 -0.001465 +0.028320 -3.780488 +0.914634 +2.073171
6257074 +1.008789 +0.002441 +0.020996 -3.963415 +0.853659 +2.317073
6257076 +1.006348 +0.004395 +0.026855 -3.902439 +0.792683 +1.951220
6257078 +1.009277 +0.000977 +0.028809 -3.780488 +0.914634 +2.195122
6257080 +1.010742 +0.002441 +0.027344 -3.841464 +0.853659 +2.378049
6257082 +1.004883 +0.000488 +0.026367 -3.719512 +0.914634 +2.012195
6257084 +1.010742 -0.003418 +0.027344 -3.902439 +0.853659 +2.073171
6257086 +1.005859 +0.000000 +0.015625 -3.658537 +0.975610 +2.073171
6257088 +1.007324 +0.001465 +0.027344 -3.902439 +0.853659 +2.134146
6257090 +1.008789 +0.000977 +0.022461 -3.902439 +0.853659 +2.073171
6257092 +1.008789 -0.003906 +0.019043 -3.841464 +0.914634 +2.134146
6257094 +1.006348 +0.003906 +0.029785 -3.963415 +0.792683 +2.012195
6257096 +1.007812 -0.004883 +0.024902 -3.963415 +0.731707 +2.073171
6257098 +1.008301 -0.001953 +0.022461 -3.841464 +0.914634 +2.195122
6257100 +1.010742 -0.002930 +0.027344 -3.841464 +0.914634 +2.073171
6257102 +1.007324 +0.000488 +0.032227 -3.902439 +0.975610 +2.134146
6257104 +1.007324 +0.002930 +0.025391 -3.963415 +0.914634 +2.073171
6257106 +1.005371 +0.000977 +0.027344 -3.902439 +0.975610 +2.256098
6257108 +1.005371 -0.001953 +0.034668 -4.024390 +0.914634 +2.012195
6257110 +1.005371 +0.000488 +0.029297 -3.719512 +1.036585 +2.134146
6257112 +1.008789 +0.000000 +0.023926 -3.902439 +0.853659 +2.073171
6257114 +1.007812 +0.001953 +0.020508 -3.841464 +0.914634 +2.073171
6257116 +1.006836 +0.007324 +0.015625 -3.902439 +0.914634 +2.012195
6257118 +1.006836 +0.000000 +0.022461 -3.780488 +0.792683 +2.073171
6257120 +1.003418 +0.000000 +0.033691 -3.841464 +0.975610 +2.256098
6257122 +1.007324 -0.003418 +0.027344 -3.841464 +0.975610 +2.256098
6257124 +1.003906 +0.000977 +0.030762 -3.902439 +0.731707 +2.012195
6257126 +1.009766 +0.002930 +0.023926 -3.902439 +0.792683 +2.256098
6257128 +1.013184 +0.000488 +0.028809 -3.780488 +0.914634 +2.073171
6257130 +1.003906 +0.004395 +0.021973 -3.963415 +0.914634 +2.195122
6257132 +1.006836 +0.004395 +0.033691 -3.841464 +0.975610 +1.951220
6257134 +1.005859 +0.000488 +0.039551 -3.902439 +0.853659 +2.256098
6257136 +1.011230 +0.005859 +0.019531 -3.902439 +0.792683 +1.951220
6257138 +1.004395 +0.000000 +0.022461 -3.780488 +0.792683 +2.073171
6257140 +1.012695 +0.001953 +0.030273 -3.902439 +0.792683 +2.073171
6257142 +1.005859 +0.000488 +0.027344 -4.024390 +0.914634 +2.134146
6257144 +1.008301 -0.001465 +0.022949 -3.780488 +1.036585 +2.073171
6257146 +1.004395 -0.003906 +0.025391 -3.902439 +0.792683 +2.073171
6257148 +1.005859 +0.000488 +0.024414 -3.902439 +0.853659 +2.195122
6257150 +1.005859 +0.003906 +0.026855 -4.085366 +0.731707 +1.951220
6257152 +1.009277 +0.000488 +0.023926 -3.841464 +0.670732 +2.134146
6257154 +1.008789 +0.003418 +0.021973 -3.963415 +0.853659 +2.134146
6257156 +1.012207 +0.003418 +0.024414 -3.719512 +0.914634 +2.134146
6257158 +1.005859 +0.002930 +0.028320 -3.719512 +0.975610 +2.012195
6257160 +1.009766 +0.002441 +0.025391 -3.902439 +0.792683 +2.012195
6257162 +1.005859 +0.001465 +0.033691 -3.841464 +0.914634 +2.012195
6257164 +1.007324 +0.003418 +0.025391 -3.902439 +0.975610 +2.012195
6257166 +1.005859 +0.001953 +0.022461 -3.780488 +0.914634 +2.256098
6257168 +1.004883 -0.005371 +0.030762 -3.963415 +0.914634 +1.829268
6257170 +1.011719 -0.004883 +0.030762 -3.902439 +0.975610 +2.195122
6257172 +1.009277 -0.008301 +0.027344 -3.841464 +0.792683 +2.256098
6257174 +1.007324 -0.001953 +0.034668 -3.719512 +0.975610 +2.073171
6257176 +1.005371 +0.000977 +0.027832 -3.780488 +0.914634 +2.073171
6257178 +1.009277 -0.003906 +0.028320 -3.719512 +0.853659 +2.073171
6257180 +1.009766 -0.002930 +0.028809 -3.963415 +0.975610 +2.195122
6257182 +1.009766 -0.004395 +0.028320 -3.780488 +0.853659 +1.951220
6257184 +1.005371 -0.003418 +0.028320 -3.902439 +0.914634 +2.256098
6257186 +1.004395 -0.004395 +0.020996 -3.841464 +0.975610 +2.012195
6257188 +1.003418 +0.001465 +0.029297 -3.841464 +0.731707 +2.195122
6257190 +1.009277 +0.000977 +0.015625 -3.780488 +0.914634 +1.890244
6257192 +1.004395 -0.002441 +0.026367 -3.841464 +0.914634 +2.073171
6257194 +1.011719 -0.004395 +0.037598 -3.780488 +0.853659 +2.012195
6257196 +1.013184 -0.002930 +0.029297 -3.780488 +0.792683 +2.134146
6257198 +1.011230 -0.000977 +0.021484 -3.902439 +0.792683 +2.073171
6257200 +1.009766 -0.004883 +0.026855 -3.902439 +0.853659 +2.134146
6257202 +1.010742 +0.000488 +0.028809 -3.841464 +0.914634 +2.134146
6257204 +1.009277 +0.003418 +0.023438 -3.841464 +0.914634 +2.012195
6257206 +1.001465 +0.000000 +0.027344 -3.841464 +0.914634 +1.951220
6257208 +1.003906 -0.000977 +0.025879 -3.841464 +0.975610 +2.012195
6257210 +1.010254 -0.000488 +0.019531 -3.597561 +0.792683 +2.134146
6257212 +1.004883 -0.004395 +0.037109 -3.841464 +0.853659 +2.256098
6257214 +1.003906 -0.000977 +0.020996 -3.780488 +0.731707 +2.073171
6257216 +1.004883 -0.000977 +0.028320 -3.780488 +0.914634 +2.012195
6257218 +1.005371 +0.000000 +0.024414 -3.780488 +0.853659 +1.951220
6257220 +1.006348 +0.005371 +0.029297 -3.780488 +0.853659 +2.012195
6257222 +1.002930 +0.002441 +0.030273 -3.902439 +0.914634 +1.951220
6257224 +1.001953 +0.000977 +0.019043 -3.841464 +0.914634 +2.012195
6257226 +1.006836 +0.007324 +0.021973 -3.841464 +0.792683 +2.195122
6257228 +1.007812 +0.005371 +0.017578 -4.024390 +0.792683 +2.317073
6257230 +1.004395 +0.000000 +0.027832 -3.841464 +0.975610 +2.073171
6257232 +1.009766 -0.005371 +0.025391 -3.902439 +1.097561 +2.012195
6257234 +1.010742 +0.004395 +0.025391 -3.841464 +0.792683 +2.073171
6257236 +1.003906 +0.004395 +0.028320 -3.780488 +0.792683 +2.073171
6257238 +1.007324 +0.002930 +0.023438 -3.780488 +0.670732 +2.073171
6257240 +1.008789 +0.003906 +0.032715 -3.902439 +0.731707 +2.256098
6257242 +1.005859 +0.003906 +0.028320 -4.085366 +0.914634 +2.195122
6257244 +1.006348 +0.004883 +0.032227 -3.902439 +0.914634 +2.195122
6257246 +1.010742 +0.000488 +0.025879 -3.902439 +0.975610 +2.134146
6257248 +1.004883 +0.002441 +0.024902 -3.841464 +0.975610 +2.073171
6257250 +1.009766 -0.000488 +0.023926 -3.841464 +0.975610 +2.256098
6257253 +1.007324 +0.003418 +0.023438 -3.780488 +0.853659 +2.012195
6257255 +1.014648 -0.002930 +0.026855 -3.841464 +0.914634 +2.073171
6257257 +1.006836 -0.002441 +0.020996 -3.902439 +0.975610 +2.195122
6257259 +1.003418 +0.003418 +0.022461 -3.841464 +0.792683 +2.073171
6257261 +1.004395 +0.005371 +0.026367 -3.902439 +0.792683 +2.256098
6257263 +1.002441 +0.000977 +0.024414 -3.902439 +0.975610 +2.256098
6257265 +1.011719 +0.006836 +0.023926 -4.024390 +0.975610 +2.073171
6257267 +1.008301 +0.002441 +0.026855 -3.902439 +0.914634 +2.073171
6257269 +1.012207 +0.001465 +0.032227 -3.902439 +0.914634 +2.195122
6257271 +1.008301 +0.003418 +0.030762 -4.146341 +0.853659 +2.195122
6257273 +1.007324 -0.001953 +0.029297 -3.841464 +0.853659 +2.012195
6257275 +1.009766 -0.000488 +0.032227 -3.963415 +0.975610 +1.890244
6257277 +1.006836 -0.000977 +0.024902 -3.963415 +1.036585 +2.317073
6257279 +1.003906 -0.004883 +0.025879 -3.780488 +0.914634 +2.134146
6257281 +1.009277 +0.002930 +0.031250 -3.963415 +0.670732 +2.134146
6257283 +1.012207 -0.001465 +0.024414 -3.902439 +0.853659 +2.317073
6257285 +1.008789 -0.001953 +0.024414 -3.780488 +0.792683 +2.012195
6257287 +1.006836 +0.003906 +0.026855 -3.902439 +0.792683 +2.073171
6257289 +1.015137 +0.000000 +0.022949 -3.780488 +0.914634 +2.195122
6257291 +1.011230 -0.000977 +0.020996 -3.963415 +0.792683 +2.012195
6257293 +1.006348 -0.004395 +0.021973 -3.902439 +0.792683 +2.134146
6257295 +1.011719 +0.001953 +0.031250 -3.902439 +0.853659 +2.012195
6257297 +1.011719 -0.001465 +0.020508 -3.841464 +0.914634 +2.134146
6257299 +1.004395 +0.001953 +0.033691 -3.902439 +0.914634 +2.256098
6257301 +1.006348 +0.001953 +0.025391 -3.902439 +0.853659 +2.012195
6257303 +1.010254 +0.002930 +0.026367 -3.841464 +0.731707 +1.951220
6257305 +1.005859 +0.004883 +0.017090 -3.780488 +0.853659 +2.134146
6257307 +1.000977 +0.002930 +0.027832 -3.902439 +1.036585 +2.012195
6257309 +1.006348 +0.005859 +0.027344 -3.780488 +0.792683 +2.073171
6257311 +1.002441 +0.002930 +0.027832 -3.780488 +0.914634 +2.195122
6257313 +1.010254 -0.002930 +0.033691 -3.963415 +0.853659 +2.134146
6257315 +1.010254 +0.001953 +0.029297 -3.902439 +0.731707 +2.134146
6257317 +1.005859 +0.002441 +0.026367 -3.780488 +0.792683 +2.073171
6257319 +1.001953 +0.004883 +0.021484 -3.902439 +0.914634 +2.134146
6257321 +1.007812 +0.001465 +0.027344 -3.902439 +0.792683 +2.256098
6257323 +1.005371 +0.007812 +0.031250 -3.963415 +0.914634 +2.134146
6257325 +1.009766 +0.010254 +0.023438 -3.902439 +0.853659 +2.012195
6257327 +1.008789 -0.002930 +0.022461 -3.963415 +0.609756 +2.134146
6257329 +1.010254 -0.002441 +0.018066 -3.841464 +0.853659 +2.317073
6257331 +1.011230 -0.001953 +0.028809 -3.780488 +0.853659 +2.134146
6257333 +1.007812 +0.003418 +0.022949 -3.780488 +0.914634 +1.951220
6257335 +1.006836 -0.002441 +0.024902 -3.902439 +0.975610 +2.134146
6257337 +1.009277 +0.008301 +0.019043 -3.780488 +0.792683 +2.195122
6257339 +1.008301 +0.002441 +0.022949 -4.024390 +0.914634 +2.195122
6257341 +1.005859 -0.000488 +0.031250 -3.902439 +0.731707 +2.012195
6257343 +1.011230 +0.001953 +0.040527 -3.841464 +0.914634 +2.012195
6257345 +1.000488 -0.001465 +0.029297 -3.780488 +0.914634 +2.195122
6257347 +1.005371 +0.000977 +0.034180 -3.902439 +0.914634 +2.134146
6257349 +1.006836 -0.001465 +0.033691 -3.841464 +0.914634 +2.134146
6257351 +1.011230 -0.009277 +0.029297 -4.024390 +0.914634 +1.951220
6257353 +1.002441 -0.005371 +0.035645 -3.963415 +0.914634 +2.317073
6257355 +1.005859 -0.005371 +0.029785 -3.841464 +0.731707 +2.073171
6257357 +1.011719 -0.002930 +0.030762 -3.780488 +0.853659 +2.134146
6257359 +1.008301 -0.007812 +0.031250 -3.719512 +0.792683 +2.134146
6257361 +1.009766 -0.001465 +0.029297 -3.963415 +0.853659 +1.951220
6257363 +1.011719 -0.005371 +0.027344 -3.963415 +0.914634 +2.134146
6257365 +1.007324 +0.002441 +0.030273 -3.780488 +0.792683 +1.951220
6257367 +1.006836 -0.001465 +0.026855 -3.719512 +0.853659 +2.012195
6257369 +1.008789 +0.003906 +0.032715 -3.841464 +0.914634 +2.134146
6257371 +1.010742 -0.004883 +0.023926 -3.841464 +0.792683 +2.134146
6257373 +1.013184 -0.001465 +0.040527 -3.841464 +0.914634 +2.073171
6257375 +1.010254 -0.002930 +0.022461 -3.780488 +0.792683 +2.256098
6257377 +1.007324 +0.000000 +0.024414 -3.719512 +0.853659 +2.012195
6257379 +1.007324 +0.000000 +0.026367 -3.902439 +0.609756 +2.134146
6257381 +1.000977 +0.001953 +0.019531 -3.963415 +0.914634 +2.073171
6257383 +1.008301 -0.002441 +0.024902 -3.780488 +0.853659 +2.073171
6257385 +1.002930 +0.000000 +0.026367 -3.780488 +0.853659 +2.134146
6257387 +1.004883 +0.003418 +0.028320 -3.902439 +0.731707 +2.073171
6257389 +1.009277 +0.003906 +0.028320 -3.841464 +0.609756 +2.073171
6257391 +1.007324 +0.001465 +0.033203 -3.902439 +0.914634 +2.073171
6257393 +1.004395 +0.000000 +0.029297 -3.780488 +0.792683 +2.134146
6257395 +1.009766 +0.005371 +0.023926 -3.780488 +0.975610 +2.256098
6257397 +1.010742 +0.004395 +0.027344 -3.841464 +0.914634 +1.890244
6257399 +1.009766 +0.005859 +0.020020 -3.902439 +0.609756 +2.134146
6257401 +1.003906 +0.003418 +0.034180 -3.780488 +0.853659 +2.134146
6257403 +1.006348 +0.000977 +0.029297 -3.719512 +0.914634 +2.256098
6257405 +1.009766 +0.004883 +0.024414 -3.841464 +0.853659 +2.012195
6257407 +1.006348 +0.008301 +0.028320 -3.780488 +0.853659 +1.951220
6257409 +1.007324 +0.003906 +0.027832 -3.841464 +0.853659 +1.951220
6257411 +1.004883 -0.000977 +0.027344 -3.841464 +0.853659 +2.134146
6257413 +1.010742 +0.007812 +0.020508 -3.780488 +0.853659 +2.134146
6257415 +1.013672 +0.004395 +0.021484 -3.841464 +0.853659 +2.012195
6257417 +1.008301 -0.000488 +0.030762 -3.719512 +0.853659 +1.951220
6257419 +1.007324 +0.003906 +0.027344 -3.841464 +0.853659 +2.134146
6257421 +1.005371 +0.004395 +0.019531 -4.024390 +0.670732 +2.134146
6257423 +1.007324 +0.002441 +0.027344 -3.902439 +0.853659 +2.317073
6257425 +1.007812 +0.000000 +0.033691 -3.780488 +0.792683 +2.073171
6257427 +1.005371 +0.000977 +0.031250 -3.963415 +0.853659 +2.256098
6257429 +1.010254 +0.001953 +0.018066 -3.963415 +0.914634 +2.012195
6257431 +1.006348 -0.000977 +0.019043 -3.841464 +0.914634 +2.073171
6257433 +1.007812 +0.000488 +0.024414 -4.085366 +0.853659 +2.073171
6257435 +1.008301 +0.004883 +0.021973 -3.902439 +0.975610 +2.073171
6257437 +1.006836 +0.001953 +0.015625 -3.902439 +0.914634 +2.317073
6257439 +1.009277 -0.000977 +0.022461 -3.719512 +0.792683 +2.134146
6257441 +1.007324 +0.001465 +0.024414 -3.902439 +0.792683 +2.134146
6257443 +1.004395 +0.000488 +0.020020 -3.963415 +0.975610 +2.073171
6257445 +1.009766 +0.003906 +0.027832 -3.841464 +0.792683 +2.256098
6257447 +1.009277 -0.000977 +0.036621 -3.963415 +0.792683 +2.012195
6257449 +1.004883 -0.002441 +0.015137 -3.902439 +0.792683 +2.134146
6257451 +1.006836 +0.001953 +0.016602 -3.963415 +0.792683 +2.134146
6257453 +1.014160 +0.003418 +0.025391 -3.902439 +1.097561 +2.073171
6257455 +1.010742 -0.002441 +0.030762 -3.780488 +0.914634 +2.012195
6257457 +1.006836 +0.003418 +0.029297 -3.963415 +0.975610 +2.317073
6257459 +1.003906 -0.003906 +0.028809 -3.841464 +0.792683 +2.073171
6257461 +0.999512 +0.006836 +0.025391 -3.841464 +0.670732 +2.073171
6257463 +1.010254 +0.004883 +0.029785 -3.963415 +1.036585 +2.195122
6257465 +1.004883 +0.000488 +0.024414 -3.963415 +0.792683 +2.073171
6257467 +1.008789 +0.001465 +0.031250 -3.841464 +0.914634 +2.256098
6257469 +1.005859 -0.005859 +0.023438 -3.963415 +0.731707 +1.951220
6257471 +1.005859 -0.001465 +0.033691 -3.963415 +0.792683 +2.195122
6257474 +1.007812 -0.004395 +0.024414 -3.841464 +1.036585 +2.134146
6257476 +1.006836 +0.001465 +0.026367 -3.902439 +0.914634 +2.134146
6257478 +1.002441 -0.001465 +0.029785 -3.841464 +0.792683 +2.195122
6257480 +1.011719 -0.001465 +0.037109 -3.902439 +0.914634 +2.134146
6257482 +1.009277 -0.004395 +0.024902 -3.841464 +0.914634 +1.951220
6257484 +1.006348 -0.001953 +0.021484 -3.780488 +0.731707 +2.134146
6257486 +1.013184 +0.001953 +0.019531 -3.841464 +0.731707 +2.073171
6257488 +1.011230 -0.005859 +0.028320 -3.963415 +0.914634 +2.073171
6257490 +1.007324 +0.003906 +0.024902 -3.841464 +0.914634 +2.195122
6257492 +1.011230 +0.003906 +0.029785 -3.719512 +0.975610 +2.378049
6257494 +1.011719 +0.000977 +0.020508 -3.963415 +0.853659 +2.012195
6257496 +1.005859 +0.002930 +0.028809 -4.024390 +0.853659 +2.012195
6257498 +1.005371 +0.001953 +0.028809 -3.841464 +0.914634 +2.195122
6257500 +1.005859 +0.000000 +0.025879 -3.963415 +0.731707 +2.012195
6257502 +1.003418 +0.003418 +0.026367 -3.902439 +0.975610 +2.134146
6257504 +1.006836 +0.005371 +0.021484 -3.902439 +0.792683 +2.012195
6257506 +1.004883 -0.002930 +0.030273 -4.024390 +0.853659 +1.951220
6257508 +1.007324 +0.004395 +0.026367 -3.841464 +0.914634 +2.134146
6257510 +1.006836 +0.004395 +0.024414 -4.024390 +0.853659 +2.317073
6257512 +1.004883 +0.002930 +0.030273 -3.902439 +0.914634 +2.195122
6257514 +1.006348 -0.002930 +0.029785 -4.024390 +0.975610 +2.134146
6257516 +1.007324 +0.001953 +0.020996 -3.902439 +1.036585 +2.012195
6257518 +1.004395 +0.001953 +0.037109 -3.719512 +0.914634 +2.134146
6257520 +1.001465 +0.004883 +0.029785 -3.902439 +0.914634 +2.134146
6257522 +1.010254 -0.003418 +0.023926 -3.780488 +0.792683 +2.073171
6257524 +1.005371 -0.003418 +0.031738 -3.841464 +0.975610 +2.134146
6257526 +1.001465 +0.000000 +0.025879 -3.841464 +0.731707 +1.951220
6257528 +1.011230 +0.002930 +0.025391 -3.963415 +0.853659 +2.012195
6257530 +1.012207 +0.001465 +0.024414 -3.780488 +0.914634 +2.195122
6257532 +1.009277 -0.004883 +0.023438 -3.841464 +0.853659 +2.073171
6257534 +1.007812 +0.002441 +0.031250 -3.841464 +0.853659 +2.073171
6257536 +1.004883 -0.002441 +0.026855 -3.841464 +0.853659 +2.195122
6257538 +1.010742 -0.006836 +0.024902 -3.841464 +0.670732 +2.073171
6257540 +1.004395 +0.000000 +0.031250 -3.780488 +0.792683 +2.073171
6257542 +1.009766 +0.004395 +0.030273 -3.841464 +0.975610 +2.134146
6257544 +1.003906 -0.000977 +0.028809 -3.841464 +0.853659 +2.012195
6257546 +1.002441 -0.000488 +0.022949 -3.902439 +0.914634 +2.012195
6257548 +1.004395 -0.004395 +0.037598 -3.841464 +0.975610 +1.951220
6257550 +1.006836 -0.001465 +0.033691 -3.902439 +0.853659 +2.012195
6257552 +1.001953 -0.001465 +0.033691 -3.902439 +0.853659 +2.317073
6257554 +1.005371 +0.000488 +0.021484 -3.902439 +0.914634 +2.195122
6257556 +1.008789 +0.000000 +0.022949 -3.780488 +0.853659 +1.890244
6257558 +1.010254 -0.005371 +0.047852 -3.902439 +0.975610 +2.073171
6257560 +1.003906 -0.006836 +0.026367 -3.841464 +0.731707 +2.012195
6257562 +1.007324 -0.007812 +0.028809 -3.902439 +0.914634 +1.951220
6257564 +1.005859 +0.003418 +0.026367 -3.902439 +0.853659 +2.073171
6257566 +1.009277 +0.000977 +0.024902 -3.780488 +0.914634 +2.134146
6257568 +1.009766 +0.002441 +0.020020 -3.902439 +0.914634 +2.073171
6257570 +1.010742 -0.001465 +0.031738 -3.658537 +0.792683 +2.195122
6257572 +1.004395 +0.007324 +0.039551 -3.780488 +0.731707 +2.012195
6257574 +1.002441 +0.000977 +0.016113 -3.841464 +0.853659 +1.890244
6257576 +1.007324 +0.001465 +0.032715 -3.719512 +0.975610 +2.134146
6257578 +1.011719 +0.002930 +0.020020 -3.841464 +0.792683 +1.829268
6257580 +1.011719 +0.001465 +0.026367 -3.841464 +0.670732 +2.073171
6257582 +1.007324 -0.000488 +0.026855 -3.719512 +0.792683 +2.134146
6257584 +1.008789 +0.003906 +0.018555 -3.902439 +0.914634 +2.134146
6257586 +1.006836 +0.006348 +0.031250 -3.841464 +0.853659 +2.012195
6257588 +1.005859 +0.006836 +0.030762 -3.841464 +0.731707 +2.073171
6257590 +1.009766 +0.007324 +0.019531 -3.963415 +1.036585 +2.073171
6257592 +1.009766 +0.000977 +0.024902 -3.841464 +0.853659 +2.073171
6257594 +1.011719 +0.009277 +0.027832 -3.719512 +0.853659 +2.317073
6257596 +1.000977 +0.004395 +0.024902 -3.963415 +0.731707 +2.195122
6257598 +1.010742 +0.009277 +0.027344 -3.841464 +0.914634 +2.256098
6257600 +1.001465 +0.001953 +0.024414 -3.902439 +0.792683 +2.073171
6257602 +1.005371 +0.000488 +0.025391 -3.902439 +0.792683 +2.256098
6257604 +1.006348 +0.000000 +0.022461 -3.841464 +0.731707 +2.195122
6257606 +1.008301 +0.004395 +0.017578 -3.963415 +0.914634 +2.073171
6257608 +1.006836 +0.004883 +0.028809 -3.841464 +0.975610 +2.134146
6257610 +1.007812 +0.004395 +0.027832 -3.841464 +0.853659 +2.256098
6257612 +1.010254 +0.004395 +0.019043 -3.902439 +0.914634 +1.951220
6257614 +1.004883 +0.001953 +0.026367 -3.902439 +0.792683 +2.317073
6257616 +1.002930 +0.003906 +0.027344 -3.841464 +0.914634 +2.256098
6257618 +1.005371 +0.005371 +0.034180 -3.841464 +0.914634 +2.073171
6257620 +1.003906 +0.001465 +0.020996 -3.902439 +0.792683 +2.073171
6257622 +1.012207 -0.002930 +0.026367 -3.902439 +0.914634 +2.317073
6257624 +1.003906 -0.000977 +0.028320 -3.841464 +0.792683 +2.073171
6257626 +1.011719 -0.003906 +0.024902 -3.841464 +0.792683 +2.195122
6257628 +1.008301 +0.000488 +0.020020 -3.902439 +1.036585 +1.951220
6257630 +1.006836 -0.001953 +0.028320 -3.902439 +0.975610 +2.195122
6257632 +1.008789 +0.000977 +0.025879 -3.963415 +1.036585 +2.256098
6257634 +1.002930 +0.001465 +0.029297 -3.902439 +1.036585 +2.012195
6257636 +1.008301 -0.002441 +0.024414 -3.963415 +0.975610 +1.951220
6257638 +1.006836 -0.001465 +0.021973 -3.841464 +0.914634 +2.195122
6257640 +1.009766 +0.003418 +0.032715 -3.841464 +0.975610 +2.134146
6257642 +1.011230 -0.003906 +0.026367 -3.780488 +0.853659 +2.134146
6257644 +1.007324 -0.000488 +0.022949 -3.902439 +0.792683 +1.890244
6257646 +1.005371 -0.001465 +0.027832 -3.841464 +0.853659 +2.256098
6257648 +1.005371 -0.003418 +0.033691 -3.719512 +0.792683 +2.073171
6257650 +1.001465 -0.003418 +0.032227 -4.024390 +0.792683 +2.073171
6257652 +1.005371 +0.003418 +0.038574 -3.902439 +1.097561 +2.073171
6257654 +1.012695 -0.000977 +0.030762 -3.719512 +0.670732 +2.134146
6257656 +1.009766 -0.000977 +0.029785 -3.841464 +0.914634 +2.317073
6257658 +1.007812 +0.001465 +0.026855 -3.902439 +1.036585 +1.829268
6257660 +1.013672 +0.000488 +0.019531 -3.963415 +0.914634 +1.951220
6257662 +1.008789 -0.004883 +0.035645 -3.841464 +0.975610 +2.195122
6257664 +1.006836 +0.001465 +0.028320 -3.719512 +0.670732 +1.890244
6257666 +1.005859 +0.000488 +0.033691 -3.963415 +0.914634 +2.073171
6257668 +1.006348 -0.002930 +0.022461 -3.902439 +0.914634 +2.134146
6257670 +1.006836 -0.001465 +0.023438 -3.902439 +0.914634 +2.134146
6257672 +1.007324 +0.007812 +0.026367 -3.841464 +0.731707 +2.439024
6257674 +1.012695 +0.002930 +0.029785 -3.841464 +0.914634 +2.012195
6257676 +1.003906 +0.000488 +0.022949 -3.841464 +0.914634 +2.256098
6257678 +1.006348 -0.002930 +0.020996 -3.841464 +0.792683 +1.890244
6257680 +1.003418 +0.003418 +0.025391 -3.841464 +0.975610 +2.073171
6257682 +1.004883 +0.003418 +0.022949 -3.841464 +0.914634 +2.134146
6257684 +1.010742 +0.000000 +0.022461 -3.902439 +0.853659 +2.073171
6257686 +1.004883 +0.005371 +0.025391 -3.841464 +1.036585 +2.012195
6257688 +1.005371 -0.003906 +0.026367 -3.902439 +0.792683 +2.134146
6257690 +1.004395 +0.003418 +0.030762 -4.024390 +0.914634 +2.378049
6257692 +1.012695 -0.001465 +0.028809 -3.902439 +0.853659 +2.012195
6257695 +1.006348 +0.000000 +0.031738 -3.841464 +0.792683 +2.256098
6257697 +1.010254 -0.002441 +0.026367 -3.902439 +0.731707 +2.134146
6257699 +1.006348 -0.001953 +0.030273 -3.780488 +0.792683 +2.134146
6257701 +1.004883 -0.000488 +0.028320 -3.719512 +1.097561 +2.012195
6257703 +1.008789 +0.004395 +0.028320 -3.841464 +0.731707 +2.256098
6257705 +1.006348 -0.004395 +0.028320 -3.902439 +0.853659 +1.951220
6257707 +1.002441 +0.001953 +0.030762 -3.841464 +0.975610 +1.829268
6257709 +1.008301 +0.003418 +0.024902 -3.780488 +0.853659 +2.073171
6257711 +1.008789 -0.003906 +0.019043 -3.841464 +0.914634 +2.256098
6257713 +1.010742 +0.004883 +0.028809 -3.841464 +0.914634 +1.951220
6257715 +1.008789 -0.002441 +0.024414 -3.963415 +0.731707 +2.317073
6257717 +1.005371 -0.002930 +0.031738 -3.841464 +0.853659 +2.195122
6257719 +1.002930 -0.000488 +0.023926 -3.841464 +0.914634 +2.012195
6257721 +1.006836 -0.003418 +0.032715 -3.963415 +0.914634 +2.012195
6257723 +1.005859 -0.005859 +0.022461 -3.719512 +0.731707 +2.195122
6257725 +1.007324 -0.001465 +0.021484 -3.902439 +0.731707 +2.073171
6257727 +1.006348 +0.000488 +0.022949 -3.902439 +0.914634 +2.073171
6257729 +1.005371 -0.000488 +0.027344 -3.841464 +0.792683 +2.195122
6257731 +1.006836 +0.000977 +0.028809 -3.841464 +0.853659 +1.890244
6257733 +1.007324 +0.000488 +0.028809 -3.963415 +1.036585 +2.012195
6257735 +1.013184 -0.002930 +0.034180 -3.902439 +0.975610 +2.073171
6257737 +1.010254 +0.003418 +0.025879 -3.719512 +0.792683 +2.317073
6257739 +1.005371 +0.002930 +0.024414 -3.719512 +0.731707 +2.195122
6257741 +1.003906 -0.000977 +0.022949 -3.841464 +0.853659 +2.012195
6257743 +1.005371 +0.002441 +0.032715 -3.841464 +0.731707 +1.890244
6257745 +1.007324 +0.002930 +0.024414 -3.841464 +0.914634 +2.012195
6257747 +1.004883 +0.002441 +0.028320 -3.841464 +0.731707 +2.195122
6257749 +1.012207 +0.000977 +0.030273 -3.719512 +0.731707 +2.195122
6257751 +1.006836 +0.001953 +0.030273 -3.902439 +1.036585 +2.073171
6257753 +1.008789 +0.007812 +0.024414 -3.780488 +0.792683 +2.073171
6257755 +1.006836 -0.000977 +0.026855 -3.963415 +0.853659 +2.256098
6257757 +1.002441 +0.000000 +0.027832 -3.902439 +0.975610 +1.951220
6257759 +1.006348 +0.000000 +0.025391 -3.719512 +0.792683 +2.195122
6257761 +1.007324 +0.001465 +0.023926 -3.841464 +0.975610 +2.195122
6257763 +1.005859 +0.001953 +0.022461 -3.902439 +0.975610 +2.012195
6257765 +1.009766 +0.001953 +0.027832 -3.658537 +0.853659 +2.134146
6257767 +1.007812 +0.005371 +0.022461 -3.902439 +0.914634 +2.012195
6257769 +1.008789 +0.001465 +0.026855 -3.780488 +0.853659 +2.195122
6257771 +1.013184 +0.003418 +0.022949 -3.963415 +0.792683 +2.256098
6257773 +1.006348 +0.003418 +0.023926 -3.963415 +0.975610 +2.073171
6257775 +1.005371 +0.001465 +0.027344 -3.658537 +0.975610 +2.134146
6257777 +1.002441 +0.005371 +0.026855 -3.963415 +0.792683 +2.134146
6257779 +1.007324 -0.003906 +0.026367 -4.024390 +1.036585 +2.134146
6257781 +1.004395 +0.000000 +0.015137 -3.902439 +0.914634 +1.951220
6257783 +1.006348 -0.004883 +0.031738 -3.841464 +0.731707 +2.195122
6257785 +1.007812 +0.004395 +0.017578 -3.841464 +0.914634 +2.256098
6257787 +1.004883 +0.000000 +0.027344 -3.902439 +0.853659 +2.317073
6257789 +1.004883 -0.001953 +0.018066 -3.841464 +0.792683 +2.012195
6257791 +1.014160 +0.002441 +0.022461 -3.902439 +0.792683 +2.134146
6257793 +1.005859 +0.000488 +0.024414 -3.780488 +0.792683 +2.195122
6257795 +1.009766 -0.001465 +0.027344 -4.024390 +0.914634 +2.256098
6257797 +1.005859 +0.003906 +0.024902 -3.841464 +0.914634 +2.012195
6257799 +1.008789 +0.001953 +0.027832 -3.902439 +0.975610 +2.012195
6257801 +1.016602 -0.002441 +0.025391 -3.902439 +0.853659 +2.134146
6257803 +1.007812 +0.001465 +0.025879 -3.841464 +0.975610 +2.073171
6257805 +1.008789 +0.000488 +0.031738 -3.841464 +0.670732 +2.012195
6257807 +1.009277 -0.001465 +0.026367 -3.902439 +0.975610 +2.195122
6257809 +1.004883 +0.000977 +0.028809 -3.963415 +0.853659 +1.951220
6257811 +1.008301 -0.001465 +0.019043 -3.841464 +0.853659 +1.890244
6257813 +1.004883 -0.003906 +0.030273 -3.780488 +0.914634 +2.195122
6257815 +1.007324 -0.001465 +0.014160 -3.841464 +0.975610 +2.073171
6257817 +1.011230 +0.003418 +0.031738 -3.658537 +0.853659 +2.073171
6257819 +1.001953 +0.000488 +0.026855 -3.902439 +0.975610 +2.195122
6257821 +1.003906 -0.001465 +0.025391 -3.902439 +0.792683 +2.073171
6257823 +1.004883 -0.000977 +0.024902 -4.024390 +0.914634 +2.195122
6257825 +1.004883 -0.003906 +0.025879 -3.841464 +0.670732 +2.134146
6257827 +1.004883 +0.001465 +0.019531 -3.780488 +0.914634 +2.073171
6257829 +1.011230 -0.000488 +0.030762 -4.024390 +0.792683 +2.012195
6257831 +1.002930 +0.000000 +0.026855 -3.963415 +0.853659 +2.073171
6257833 +1.005859 +0.004883 +0.029297 -3.841464 +0.914634 +1.890244
6257835 +1.001953 +0.002441 +0.035645 -3.780488 +0.975610 +2.012195
6257837 +1.004883 +0.003418 +0.022461 -3.780488 +0.853659 +2.012195
6257839 +1.004883 +0.000000 +0.024414 -3.841464 +0.975610 +2.256098
6257841 +1.008789 +0.002441 +0.026367 -3.963415 +0.975610 +2.012195
6257843 +1.009766 +0.006836 +0.029297 -3.902439 +0.975610 +1.951220
6257845 +1.008301 +0.000488 +0.037109 -3.902439 +0.670732 +2.317073
6257847 +1.004883 +0.002441 +0.031250 -3.902439 +0.731707 +2.256098
6257849 +1.009277 +0.000977 +0.026367 -3.780488 +0.792683 +2.195122
6257851 +1.008301 +0.001953 +0.019531 -4.024390 +0.853659 +2.378049
6257853 +0.999023 +0.001953 +0.026855 -3.902439 +0.670732 +2.012195
6257855 +1.005371 +0.002441 +0.028320 -3.902439 +0.914634 +2.195122
6257857 +1.004395 +0.000488 +0.018066 -3.841464 +0.792683 +1.951220
6257859 +1.002930 +0.001465 +0.027832 -3.902439 +0.792683 +2.256098
6257861 +1.008301 -0.001953 +0.035156 -3.902439 +0.670732 +1.951220
6257863 +1.004395 +0.004395 +0.016602 -3.902439 +1.097561 +2.134146
6257865 +1.009277 -0.000488 +0.024414 -3.963415 +0.853659 +1.829268
6257867 +1.006348 -0.005859 +0.027832 -4.024390 +0.853659 +2.134146
6257869 +1.011230 -0.002930 +0.023926 -3.780488 +0.609756 +2.317073
6257871 +1.012695 -0.006348 +0.027344 -3.780488 +0.914634 +2.378049
6257873 +1.006348 -0.005371 +0.021973 -3.841464 +0.853659 +2.134146
6257875 +1.011719 -0.006836 +0.023926 -3.902439 +1.036585 +2.134146
6257877 +1.006348 +0.000000 +0.033691 -3.841464 +0.853659 +1.951220
6257879 +1.006348 -0.001953 +0.027344 -3.902439 +0.731707 +2.195122
6257881 +1.008789 -0.001465 +0.030762 -3.963415 +0.853659 +2.134146
6257883 +1.006836 +0.000000 +0.024902 -3.780488 +0.853659 +2.134146
6257885 +1.008301 -0.006348 +0.028809 -3.963415 +0.975610 +2.073171
6257887 +1.002930 +0.000000 +0.026367 -3.902439 +0.853659 +2.195122
6257889 +1.004883 +0.002441 +0.030762 -3.780488 +0.731707 +2.012195
6257891 +1.005371 -0.005859 +0.033691 -4.024390 +0.853659 +1.951220
6257893 +1.004395 +0.001465 +0.032227 -3.841464 +0.609756 +2.134146
6257895 +1.012207 -0.001953 +0.028809 -3.902439 +0.914634 +2.012195
6257897 +1.005859 -0.002441 +0.032715 -3.963415 +0.914634 +2.195122
6257899 +1.009277 +0.000000 +0.037109 -3.719512 +0.914634 +2.073171
6257901 +1.009766 -0.005859 +0.034180 -3.719512 +0.914634 +2.073171
6257903 +1.005859 -0.001953 +0.029297 -3.963415 +0.914634 +1.890244
6257905 +1.009277 +0.000977 +0.028320 -3.780488 +0.731707 +2.012195
6257907 +1.005371 +0.004395 +0.029785 -3.963415 +0.914634 +2.073171
6257909 +1.004395 -0.002930 +0.021484 -3.841464 +1.036585 +1.890244
6257911 +1.001953 +0.002441 +0.027344 -3.963415 +0.975610 +2.012195
6257914 +1.012207 +0.001953 +0.023926 -3.841464 +0.670732 +2.134146
6257916 +1.008301 -0.002441 +0.028809 -3.902439 +0.731707 +1.951220
6257918 +1.008301 +0.002441 +0.022461 -3.963415 +0.914634 +1.890244
6257920 +1.011719 +0.000488 +0.025391 -4.024390 +0.853659 +1.890244
6257922 +1.006348 +0.002441 +0.027344 -3.780488 +0.792683 +2.134146
6257924 +1.007324 +0.005859 +0.030762 -3.780488 +0.853659 +1.951220
6257926 +1.004883 +0.000977 +0.022461 -3.841464 +0.853659 +2.195122
6257928 +1.008789 -0.003906 +0.023438 -3.841464 +0.792683 +2.256098
6257930 +1.003418 +0.006836 +0.023926 -3.841464 +0.731707 +2.195122
6257932 +1.003418 +0.002930 +0.022461 -3.780488 +0.853659 +2.073171
6257934 +1.004883 +0.005859 +0.020020 -3.902439 +0.914634 +2.012195
6257936 +1.008301 +0.007324 +0.022461 -3.963415 +0.792683 +2.073171
6257938 +1.008301 +0.004395 +0.027344 -3.719512 +0.792683 +1.768293
6257940 +0.999512 +0.004395 +0.021973 -3.780488 +0.731707 +2.012195
6257942 +1.008301 -0.000977 +0.017578 -3.780488 +0.975610 +1.951220
6257944 +1.003418 +0.003906 +0.025391 -3.780488 +0.853659 +2.073171
6257946 +1.004395 +0.001953 +0.024902 -3.841464 +0.792683 +2.012195
6257948 +1.007812 +0.001953 +0.017090 -3.902439 +1.036585 +2.073171
6257950 +1.008301 +0.003906 +0.032227 -3.841464 +0.853659 +2.134146
6257952 +1.006348 +0.002441 +0.020508 -3.841464 +1.036585 +2.195122
6257954 +1.010254 -0.001465 +0.012207 -3.902439 +0.975610 +2.012195
6257956 +1.014160 +0.001953 +0.017090 -3.719512 +0.975610 +2.012195
6257958 +0.997559 +0.000000 +0.026367 -3.902439 +0.670732 +2.073171
6257960 +1.010254 -0.001465 +0.031250 -3.902439 +0.914634 +1.951220
6257962 +1.008301 -0.000488 +0.025391 -3.841464 +1.036585 +2.073171
6257964 +1.006348 +0.001953 +0.022949 -3.780488 +0.914634 +2.073171
6257966 +1.010254 -0.002441 +0.026855 -3.841464 +0.914634 +2.195122
6257968 +1.005859 +0.001953 +0.033203 -3.841464 +0.975610 +2.195122
6257970 +1.006836 -0.002930 +0.027832 -3.841464 +0.914634 +2.012195
6257972 +1.004883 +0.000977 +0.033203 -3.963415 +0.670732 +1.951220
6257974 +1.006836 +0.001953 +0.025879 -3.841464 +1.036585 +2.317073
6257976 +1.003906 +0.000977 +0.032715 -3.902439 +0.975610 +2.012195
6257978 +1.009766 +0.001953 +0.026367 -3.902439 +0.792683 +2.073171
6257980 +1.010254 +0.000000 +0.022461 -3.780488 +0.853659 +2.195122
6257982 +1.005859 -0.003418 +0.027832 -4.024390 +0.914634 +1.951220
6257984 +1.000488 +0.002441 +0.025391 -3.963415 +0.975610 +1.890244
6257986 +1.006836 -0.002930 +0.027344 -3.780488 +0.975610 +2.134146
6257988 +1.009277 +0.000977 +0.020020 -3.902439 +0.914634 +2.012195
6257990 +1.010742 +0.000000 +0.030273 -3.902439 +0.731707 +2.195122
6257992 +1.012207 -0.000488 +0.026367 -3.841464 +0.853659 +2.073171
6257994 +1.006836 -0.000488 +0.019043 -3.841464 +0.731707 +2.073171
6257996 +1.013184 +0.000977 +0.032227 -3.902439 +0.792683 +2.195122
6257998 +1.007812 -0.001465 +0.034180 -3.841464 +0.792683 +1.951220
6258000 +1.009766 -0.000488 +0.023438 -3.841464 +0.914634 +1.951220
6258002 +1.007812 -0.002930 +0.026367 -3.963415 +0.792683 +1.951220
6258004 +1.006836 +0.008789 +0.025879 -3.780488 +0.731707 +2.195122
6258006 +1.007812 +0.007812 +0.022461 -3.902439 +0.975610 +2.195122
6258008 +1.005371 -0.000977 +0.024414 -3.902439 +1.036585 +2.012195
6258010 +1.009277 +0.004395 +0.032715 -3.780488 +0.792683 +2.134146
6258012 +1.010254 +0.005371 +0.028320 -3.902439 +0.853659 +2.195122
6258014 +1.004883 -0.001465 +0.021484 -3.780488 +0.792683 +1.951220
6258016 +1.007812 -0.003418 +0.030762 -3.780488 +0.731707 +2.134146
6258018 +1.011230 +0.000000 +0.025879 -3.780488 +0.914634 +2.073171
6258020 +1.004395 -0.002930 +0.028320 -4.024390 +0.914634 +2.073171
6258022 +1.008301 +0.006348 +0.029297 -3.841464 +0.731707 +2.012195
6258024 +1.007812 +0.001465 +0.023926 -3.780488 +0.853659 +2.073171
6258026 +1.010742 -0.001953 +0.025391 -3.719512 +0.975610 +2.195122
6258028 +1.013672 +0.000000 +0.026855 -3.902439 +0.914634 +2.256098
6258030 +1.006348 -0.000488 +0.016113 -3.841464 +0.853659 +2.073171
6258032 +1.012695 +0.003418 +0.030273 -3.841464 +0.975610 +2.195122
6258034 +1.004395 +0.003418 +0.026367 -4.024390 +0.792683 +2.073171
6258036 +1.012207 +0.006348 +0.022461 -3.841464 +0.670732 +2.073171
6258038 +1.005859 -0.003906 +0.027344 -4.024390 +0.914634 +2.134146
6258040 +1.000488 +0.003906 +0.020020 -3.841464 +0.853659 +1.951220
6258042 +1.000977 +0.003906 +0.030273 -3.902439 +0.975610 +2.317073
6258044 +1.008789 -0.002441 +0.027832 -3.841464 +0.914634 +2.134146
6258046 +1.008789 -0.001953 +0.025879 -3.902439 +0.914634 +2.012195
6258048 +1.007324 -0.000977 +0.028809 -3.841464 +0.792683 +2.195122
6258050 +1.006836 +0.005371 +0.023926 -3.841464 +0.914634 +2.012195
6258052 +1.010742 -0.000488 +0.023926 -3.841464 +0.853659 +2.134146
6258054 +1.009277 +0.000488 +0.025391 -4.024390 +0.853659 +2.073171
6258056 +1.005371 +0.003418 +0.035156 -3.963415 +0.853659 +2.317073
6258058 +1.009766 -0.000488 +0.029785 -4.024390 +0.609756 +2.134146
6258060 +1.003418 +0.003906 +0.036621 -3.902439 +1.097561 +2.012195
6258062 +1.004883 +0.001953 +0.028809 -3.719512 +0.792683 +2.073171
6258064 +1.001953 +0.002930 +0.033691 -3.719512 +0.975610 +2.073171
6258066 +1.009277 -0.002930 +0.036621 -3.841464 +0.914634 +2.256098
6258068 +1.011230 -0.003906 +0.029297 -3.780488 +0.975610 +2.256098
6258070 +1.009766 -0.003418 +0.031738 -3.902439 +0.853659 +1.890244
6258072 +1.000977 +0.000000 +0.034668 -3.719512 +0.914634 +2.012195
6258074 +1.010742 -0.003906 +0.031250 -3.841464 +0.853659 +2.012195
6258076 +1.000977 +0.003906 +0.038086 -3.780488 +0.914634 +2.012195
6258078 +1.005859 -0.002441 +0.031738 -3.902439 +0.914634 +2.256098
6258080 +1.008301 +0.000000 +0.025879 -3.841464 +0.853659 +2.073171
6258082 +1.010254 -0.003418 +0.036133 -3.902439 +0.975610 +1.951220
6258084 +1.009277 -0.004395 +0.028320 -3.841464 +0.792683 +2.012195
6258086 +1.012695 -0.005371 +0.030273 -3.902439 +0.853659 +2.012195
6258088 +1.004883 -0.000488 +0.027344 -3.780488 +0.853659 +2.134146
6258090 +1.009766 +0.000488 +0.022949 -3.963415 +0.975610 +2.134146
6258092 +1.006836 -0.003418 +0.032715 -3.841464 +0.792683 +2.134146
6258094 +1.002930 +0.003418 +0.027832 -3.719512 +0.853659 +2.256098
6258096 +1.008789 +0.003418 +0.033203 -3.902439 +0.853659 +1.951220
6258098 +1.004395 -0.001465 +0.018555 -3.902439 +0.853659 +2.012195
6258100 +1.005371 -0.002441 +0.017578 -3.841464 +0.975610 +2.134146
6258102 +1.007324 +0.002930 +0.031738 -3.780488 +0.792683 +2.195122
6258104 +1.008789 +0.000977 +0.020508 -3.841464 +0.731707 +2.012195
6258106 +1.008301 -0.000488 +0.019531 -3.780488 +0.853659 +1.951220
6258108 +1.006836 +0.000488 +0.027344 -3.841464 +0.731707 +2.134146
6258110 +1.006836 +0.003906 +0.023438 -3.902439 +0.792683 +2.195122
6258112 +1.009277 +0.000000 +0.018555 -3.963415 +0.853659 +1.890244
6258114 +1.011719 +0.004395 +0.017578 -3.719512 +0.975610 +1.951220
6258116 +1.007812 -0.002441 +0.028320 -3.780488 +0.914634 +1.951220
6258118 +1.003418 +0.000000 +0.017578 -3.963415 +0.975610 +2.195122
6258120 +0.999023 +0.004883 +0.024414 -3.780488 +0.853659 +2.073171
6258122 +1.009766 +0.001465 +0.028809 -3.780488 +0.975610 +2.256098
6258124 +1.009277 +0.004395 +0.030762 -3.902439 +0.731707 +2.134146
6258126 +1.018066 +0.004883 +0.022949 -3.841464 +0.914634 +2.134146
6258128 +1.002441 +0.003906 +0.022461 -3.780488 +0.914634 +2.195122
6258130 +1.005371 -0.000488 +0.027832 -3.902439 +0.670732 +2.073171
6258132 +1.006836 +0.000488 +0.020020 -3.902439 +0.975610 +2.073171
6258135 +1.006348 -0.003418 +0.015137 -3.902439 +0.853659 +2.195122
6258137 +1.012695 +0.003906 +0.020508 -3.841464 +0.670732 +2.195122
6258139 +1.006836 -0.003906 +0.019531 -3.841464 +0.853659 +2.012195
6258141 +1.013184 -0.000977 +0.020996 -3.841464 +1.097561 +2.012195
6258143 +1.008301 +0.000977 +0.027832 -3.780488 +0.853659 +2.134146
6258145 +1.008789 +0.002930 +0.034668 -3.780488 +0.792683 +2.195122
6258147 +1.005859 +0.003418 +0.023438 -3.841464 +1.036585 +2.134146
6258149 +1.006836 -0.001953 +0.020020 -3.902439 +0.975610 +2.195122
6258151 +1.003906 +0.000488 +0.023926 -3.902439 +0.670732 +2.256098
6258153 +1.009277 +0.000977 +0.028809 -3.902439 +0.792683 +2.134146
6258155 +1.001465 +0.002930 +0.032227 -3.902439 +0.853659 +2.256098
6258157 +1.006348 +0.001953 +0.027832 -4.024390 +0.853659 +2.012195
6258159 +1.006836 -0.002930 +0.018555 -3.841464 +0.853659 +2.195122
6258161 +1.008301 +0.002930 +0.025391 -3.963415 +0.914634 +2.195122
6258163 +1.013184 +0.000488 +0.022949 -3.841464 +0.853659 +2.012195
6258165 +1.008301 +0.002441 +0.024902 -3.902439 +0.731707 +2.012195
6258167 +1.007324 -0.001465 +0.030273 -3.902439 +0.975610 +2.195122
6258169 +1.006348 -0.003418 +0.027832 -3.963415 +0.975610 +2.134146
6258171 +1.012207 -0.000488 +0.031738 -3.902439 +0.914634 +2.012195
6258173 +1.006836 +0.000977 +0.027344 -3.841464 +0.792683 +2.195122
6258175 +1.010254 +0.003906 +0.014160 -3.841464 +0.975610 +2.195122
6258177 +1.010742 +0.002441 +0.030273 -3.902439 +0.670732 +2.195122
6258179 +1.007324 +0.000977 +0.029297 -3.658537 +0.975610 +2.195122
6258181 +1.008789 -0.006836 +0.028809 -3.902439 +0.975610 +2.134146
6258183 +1.007812 +0.000977 +0.025391 -3.780488 +0.914634 +2.195122
6258185 +1.009277 +0.005371 +0.031250 -3.780488 +0.975610 +2.134146
6258187 +1.003906 -0.003906 +0.025391 -3.902439 +0.853659 +2.134146
6258189 +1.007812 -0.005859 +0.032227 -3.719512 +0.914634 +1.951220
6258191 +1.011719 +0.002930 +0.025391 -3.902439 +0.853659 +1.951220
6258193 +1.004883 +0.004883 +0.021484 -3.841464 +0.975610 +2.195122
6258195 +1.007812 -0.005371 +0.028809 -3.963415 +0.670732 +2.073171
6258197 +1.012207 +0.000000 +0.024902 -4.024390 +0.853659 +2.073171
6258199 +1.003906 +0.000000 +0.027832 -3.780488 +1.036585 +2.195122
6258201 +1.001953 +0.002441 +0.032227 -3.902439 +0.853659 +2.134146
6258203 +1.009277 +0.006836 +0.042969 -4.146341 +0.792683 +2.073171
6258205 +1.005859 -0.003418 +0.023926 -3.841464 +0.792683 +2.134146
6258207 +1.006348 +0.002441 +0.022949 -3.963415 +0.975610 +2.073171
6258209 +1.004395 -0.000977 +0.030273 -3.963415 +0.914634 +2.195122
6258211 +1.005371 +0.001465 +0.030273 -3.963415 +0.670732 +2.134146
6258213 +1.009277 +0.006836 +0.022949 -3.902439 +0.853659 +2.073171
6258215 +1.002441 -0.001953 +0.022949 -3.719512 +0.792683 +2.073171
6258217 +1.005371 +0.006836 +0.031250 -3.841464 +0.792683 +2.073171
6258219 +1.007812 +0.003906 +0.021973 -3.841464 +0.731707 +2.073171
6258221 +1.010254 -0.000977 +0.042480 -3.841464 +0.975610 +1.890244
6258223 +1.012207 +0.004395 +0.018555 -3.963415 +0.914634 +2.317073
6258225 +1.005859 +0.000488 +0.029297 -3.963415 +0.853659 +2.012195
6258227 +1.012695 +0.002930 +0.026367 -3.902439 +1.097561 +2.134146
6258229 +1.013672 +0.004395 +0.027344 -3.780488 +0.853659 +2.073171
6258231 +1.003906 +0.001953 +0.028809 -3.841464 +1.097561 +2.012195
6258233 +1.016113 -0.001465 +0.032227 -3.902439 +0.975610 +2.134146
6258235 +1.007812 +0.001465 +0.022949 -3.841464 +0.731707 +2.073171
6258237 +1.006836 -0.000977 +0.030762 -3.841464 +0.792683 +2.073171
6258239 +0.998535 +0.000000 +0.021484 -3.841464 +0.853659 +2.195122
6258241 +1.006836 +0.000488 +0.033203 -3.719512 +0.792683 +1.890244
6258243 +1.006348 -0.000488 +0.027832 -4.085366 +0.914634 +2.195122
6258245 +1.009277 -0.000488 +0.029785 -3.841464 +0.731707 +2.256098
6258247 +1.010742 +0.004883 +0.020996 -3.841464 +0.853659 +2.134146
6258249 +1.011230 -0.004883 +0.027344 -3.780488 +0.853659 +1.951220
6258251 +1.006348 +0.003906 +0.036133 -3.902439 +0.853659 +2.134146
6258253 +1.006348 +0.000488 +0.031250 -3.658537 +0.914634 +2.073171
6258255 +1.010254 -0.001953 +0.029297 -3.963415 +1.036585 +2.134146
6258257 +1.007812 -0.005371 +0.030762 -3.841464 +0.792683 +2.256098
6258259 +1.006348 -0.000977 +0.027832 -3.780488 +0.853659 +1.951220
6258261 +1.003906 +0.001953 +0.031250 -3.780488 +0.914634 +2.134146
6258263 +1.011719 -0.001465 +0.029297 -3.719512 +0.914634 +2.195122
6258265 +1.008789 +0.001953 +0.025879 -3.902439 +0.914634 +2.195122
6258267 +1.007324 -0.000488 +0.025391 -3.841464 +0.731707 +2.195122
6258269 +1.008789 +0.008301 +0.030762 -3.780488 +0.853659 +2.134146
6258271 +1.013184 +0.002441 +0.031738 -3.780488 +0.853659 +2.256098
6258273 +1.008301 +0.000977 +0.022949 -3.780488 +0.853659 +1.951220
6258275 +1.008789 -0.000488 +0.022461 -3.658537 +0.792683 +2.073171
6258277 +1.007812 -0.001465 +0.020996 -3.841464 +0.914634 +1.890244
6258279 +1.005859 +0.007324 +0.033691 -3.963415 +0.853659 +1.951220
6258281 +1.013184 +0.000000 +0.020996 -3.841464 +0.975610 +1.829268
6258283 +1.008789 -0.000488 +0.017090 -3.841464 +0.853659 +2.073171
6258285 +1.012695 +0.007324 +0.018555 -3.841464 +0.792683 +2.134146
6258287 +1.004883 +0.001953 +0.010742 -3.902439 +0.975610 +2.134146
6258289 +1.007812 +0.001465 +0.017090 -3.841464 +0.853659 +2.134146
6258291 +1.006836 +0.004883 +0.025879 -3.841464 +0.853659 +2.195122
6258293 +1.005859 +0.001953 +0.030762 -3.780488 +0.853659 +2.073171
6258295 +1.006836 +0.009766 +0.022461 -3.780488 +0.914634 +2.073171
6258297 +1.013672 +0.005371 +0.018066 -3.841464 +0.853659 +2.012195
6258299 +1.009277 -0.000488 +0.027832 -3.902439 +0.914634 +2.012195
6258301 +1.002930 -0.001465 +0.013672 -3.658537 +0.731707 +2.134146
6258303 +1.000488 +0.001465 +0.025391 -3.780488 +0.853659 +2.195122
6258305 +1.000488 +0.004395 +0.024414 -3.902439 +0.853659 +2.012195
6258307 +1.005859 +0.003418 +0.020508 -3.719512 +0.975610 +2.256098
6258309 +1.007812 +0.004883 +0.018555 -3.902439 +0.853659 +2.012195
6258311 +1.014160 +0.013184 +0.031250 -3.780488 +0.914634 +2.256098
6258313 +1.003418 +0.003418 +0.027344 -3.902439 +0.914634 +1.890244
6258315 +1.005371 +0.001465 +0.021973 -3.902439 +0.975610 +2.073171
6258317 +1.004395 +0.000977 +0.027832 -3.780488 +0.914634 +2.073171
6258319 +1.005371 -0.001465 +0.028809 -3.963415 +0.853659 +2.195122
6258321 +1.007812 -0.002441 +0.021484 -3.963415 +0.853659 +2.256098
6258323 +1.008301 -0.002441 +0.027344 -3.780488 +1.036585 +2.073171
6258325 +1.007812 +0.003906 +0.025391 -3.841464 +0.853659 +2.012195
6258327 +1.003906 +0.002441 +0.025391 -3.902439 +0.853659 +2.134146
6258329 +1.005859 +0.006836 +0.024414 -4.024390 +0.914634 +1.951220
6258331 +1.009766 -0.003418 +0.032715 -3.902439 +0.731707 +2.134146
6258333 +1.006348 +0.003418 +0.025391 -3.719512 +0.914634 +2.134146
6258335 +1.014648 -0.002930 +0.028320 -3.780488 +0.792683 +2.134146
6258337 +1.011230 -0.000488 +0.024414 -3.902439 +0.975610 +2.256098
6258339 +1.005371 -0.001465 +0.028320 -3.841464 +0.914634 +2.012195
6258341 +1.007324 +0.004395 +0.035156 -3.841464 +0.731707 +2.012195
6258343 +1.010254 -0.001953 +0.038086 -3.780488 +0.914634 +2.195122
6258345 +1.007812 +0.004883 +0.024902 -3.963415 +0.975610 +2.134146
6258347 +1.012207 +0.000000 +0.028320 -3.780488 +0.853659 +2.073171
6258349 +1.007812 +0.001953 +0.026367 -3.780488 +0.914634 +2.134146
6258351 +1.006348 -0.001465 +0.032227 -4.085366 +0.975610 +2.012195
6258353 +1.008301 +0.001465 +0.026367 -3.841464 +0.853659 +2.073171
6258356 +1.009277 -0.002930 +0.022461 -3.841464 +0.792683 +1.890244
6258358 +1.005859 -0.006348 +0.036621 -3.780488 +0.914634 +2.134146
6258360 +1.007324 -0.000977 +0.034180 -3.780488 +0.792683 +2.195122
6258362 +1.011719 +0.002441 +0.028809 -3.963415 +0.914634 +2.134146
6258364 +1.011230 +0.005859 +0.019531 -3.780488 +0.914634 +1.890244
6258366 +1.007812 +0.003418 +0.026855 -3.963415 +0.792683 +2.256098
6258368 +1.007324 -0.001465 +0.033203 -3.902439 +0.670732 +2.134146
6258370 +1.011719 -0.004395 +0.027344 -3.841464 +1.036585 +2.134146
6258372 +1.002441 +0.000488 +0.029297 -3.902439 +0.914634 +2.195122
6258374 +1.004883 -0.000488 +0.026367 -3.902439 +0.792683 +2.134146
6258376 +1.004395 +0.000977 +0.028809 -3.658537 +0.914634 +1.951220
6258378 +1.004395 +0.004395 +0.025879 -3.719512 +0.853659 +2.012195
6258380 +1.001465 +0.002930 +0.034668 -3.841464 +0.670732 +2.073171
6258382 +1.003906 +0.004395 +0.025391 -3.963415 +0.914634 +2.256098
6258384 +1.007324 +0.002441 +0.018555 -3.902439 +0.731707 +1.951220
6258386 +1.005371 +0.003906 +0.031250 -3.902439 +0.792683 +2.073171
6258388 +1.006836 +0.000488 +0.029297 -3.902439 +0.853659 +2.073171
6258390 +1.002441 -0.003906 +0.029297 -3.780488 +0.914634 +2.012195
6258392 +1.008301 -0.002441 +0.020508 -3.902439 +1.036585 +2.195122
6258394 +1.007812 -0.000488 +0.029297 -3.780488 +1.036585 +1.829268
6258396 +1.005859 +0.003418 +0.028809 -3.902439 +0.792683 +2.317073
6258398 +1.009766 -0.002930 +0.023438 -3.902439 +0.975610 +2.073171
6258400 +1.009277 +0.003418 +0.023438 -3.841464 +0.853659 +2.317073
6258402 +1.007812 +0.000000 +0.034668 -3.963415 +0.853659 +2.073171
6258404 +1.007324 +0.000000 +0.015625 -3.841464 +0.670732 +2.073171
6258406 +1.006836 -0.004883 +0.031250 -3.902439 +0.914634 +2.012195
6258408 +1.005371 +0.002441 +0.025391 -3.902439 +0.792683 +2.134146
6258410 +1.002930 -0.000977 +0.034668 -3.780488 +0.731707 +2.073171
6258412 +1.011719 +0.000488 +0.031738 -3.963415 +0.914634 +2.012195
6258414 +1.006348 +0.003418 +0.037109 -4.024390 +0.853659 +2.073171
6258416 +1.006836 +0.000977 +0.020996 -3.963415 +0.731707 +2.134146
6258418 +1.005371 +0.001953 +0.025391 -3.841464 +0.914634 +1.951220
6258420 +1.006836 +0.001465 +0.026855 -3.902439 +0.853659 +2.073171
6258422 +1.005859 -0.001465 +0.039062 -3.841464 +0.853659 +2.073171
6258424 +1.010254 -0.000488 +0.024414 -3.780488 +0.914634 +2.195122
6258426 +1.004395 +0.002930 +0.020996 -3.841464 +0.853659 +2.195122
6258428 +1.003906 -0.004395 +0.034668 -3.902439 +0.914634 +2.073171
6258430 +1.005371 -0.000977 +0.035645 -3.902439 +0.853659 +2.012195
6258432 +1.008301 -0.000488 +0.035156 -3.902439 +0.670732 +2.195122
6258434 +1.003418 -0.001953 +0.028320 -3.780488 +0.853659 +2.134146
6258436 +1.002441 +0.001465 +0.032715 -3.902439 +0.853659 +1.951220
6258438 +1.006836 +0.000488 +0.019043 -3.780488 +0.914634 +1.890244
6258440 +1.011719 +0.001953 +0.024414 -3.780488 +1.036585 +2.073171
6258442 +1.009766 +0.002441 +0.027832 -3.902439 +0.792683 +2.195122
6258444 +1.009766 -0.000977 +0.021973 -3.963415 +0.914634 +2.195122
6258446 +1.010254 +0.000488 +0.030762 -3.902439 +0.914634 +2.073171
6258448 +1.013184 +0.000000 +0.022461 -3.841464 +0.731707 +2.073171
6258450 +1.015137 +0.000977 +0.021973 -3.780488 +0.853659 +1.890244
6258452 +1.006348 +0.000000 +0.026855 -3.719512 +0.853659 +1.829268
6258454 +1.006348 +0.000488 +0.021484 -3.841464 +0.792683 +2.073171
6258456 +1.008789 -0.002441 +0.023926 -3.841464 +0.731707 +1.890244
6258458 +1.008301 +0.007324 +0.023438 -3.841464 +0.853659 +2.073171
6258460 +1.002441 +0.003906 +0.032227 -3.841464 +0.914634 +2.073171
6258462 +1.009766 +0.002930 +0.025879 -3.841464 +0.731707 +2.134146
6258464 +1.002441 -0.000977 +0.020020 -3.841464 +0.731707 +2.073171
6258466 +1.008789 +0.000000 +0.030762 -3.780488 +0.792683 +2.195122
6258468 +1.006348 -0.001953 +0.022461 -3.841464 +0.975610 +2.256098
6258470 +1.010742 +0.000488 +0.029785 -3.902439 +0.792683 +1.829268
6258472 +1.003418 -0.003906 +0.022949 -3.780488 +0.853659 +2.195122
6258474 +1.007812 +0.002441 +0.026367 -3.902439 +1.097561 +2.195122
6258476 +1.003906 +0.004395 +0.023926 -3.963415 +0.975610 +2.012195
6258478 +1.012207 +0.002930 +0.023438 -4.024390 +0.853659 +1.951220
6258480 +1.006348 +0.001953 +0.030762 -3.963415 +0.731707 +2.073171
6258482 +1.006348 -0.005859 +0.036133 -3.780488 +0.792683 +2.073171
6258484 +1.009277 +0.003906 +0.021973 -3.902439 +0.914634 +2.012195
6258486 +1.004883 +0.000000 +0.023438 -3.780488 +0.853659 +2.073171
6258488 +1.006836 -0.000488 +0.023926 -3.963415 +0.853659 +2.012195
6258490 +1.008789 +0.002441 +0.022461 -3.902439 +0.975610 +2.073171
6258492 +1.004883 +0.005859 +0.026855 -3.780488 +0.914634 +2.195122
6258494 +1.004883 -0.001465 +0.022461 -3.963415 +0.731707 +2.012195
6258496 +1.004395 +0.001953 +0.020020 -3.841464 +0.792683 +2.073171
6258498 +1.006348 +0.002441 +0.039551 -3.841464 +0.792683 +2.012195
6258500 +1.004883 -0.001953 +0.022949 -3.841464 +0.853659 +2.073171
6258502 +1.010254 +0.004883 +0.020996 -3.963415 +0.853659 +1.951220
6258504 +1.010742 +0.004883 +0.027344 -3.963415 +0.914634 +2.073171
6258506 +1.009277 -0.000488 +0.022949 -3.841464 +0.792683 +2.134146
6258508 +1.003906 +0.000000 +0.033691 -3.841464 +0.792683 +2.073171
6258510 +1.008301 +0.004395 +0.026855 -4.085366 +0.914634 +1.951220
6258512 +1.004395 -0.000488 +0.027832 -3.963415 +0.975610 +1.951220
6258514 +1.011230 -0.001953 +0.023926 -3.841464 +0.792683 +2.256098
6258516 +1.007812 -0.008301 +0.026367 -3.963415 +1.036585 +2.134146
6258518 +1.005859 +0.000488 +0.030273 -3.841464 +0.853659 +2.073171
6258520 +1.008301 -0.001953 +0.029785 -3.902439 +0.731707 +2.073171
6258522 +1.008789 +0.007324 +0.032227 -3.963415 +0.853659 +2.256098
6258524 +1.006836 +0.003906 +0.029297 -3.841464 +0.792683 +1.951220
6258526 +1.005371 +0.001953 +0.026367 -3.841464 +0.853659 +2.195122
6258528 +1.006836 -0.003418 +0.028809 -3.780488 +1.036585 +2.195122
6258530 +1.007324 -0.002441 +0.024414 -3.963415 +0.853659 +2.073171
6258532 +1.004395 -0.000977 +0.023438 -3.780488 +0.914634 +2.134146
6258534 +1.010742 +0.000488 +0.030273 -3.841464 +0.914634 +2.073171
6258536 +1.008301 +0.000000 +0.026367 -3.902439 +0.853659 +1.951220
6258538 +1.009277 +0.001953 +0.024902 -3.902439 +0.792683 +2.073171
6258540 +1.004395 -0.003418 +0.031250 -3.841464 +1.036585 +2.012195
6258542 +1.005859 -0.004395 +0.029297 -3.780488 +0.975610 +2.073171
6258544 +1.005859 -0.001465 +0.029785 -3.902439 +0.792683 +2.012195
6258546 +1.005371 +0.000977 +0.017090 -3.902439 +0.853659 +2.317073
6258548 +1.003906 -0.001953 +0.035645 -3.902439 +0.975610 +2.256098
6258550 +1.012207 -0.003906 +0.029785 -3.841464 +0.853659 +1.951220
6258552 +1.009277 -0.000488 +0.029297 -3.963415 +0.853659 +2.134146
6258554 +1.006836 -0.001953 +0.020508 -3.902439 +0.853659 +1.951220
6258556 +1.006836 -0.001465 +0.025391 -3.780488 +0.914634 +1.890244
6258558 +1.006348 -0.002930 +0.031738 -3.902439 +0.792683 +2.073171
6258560 +1.009277 +0.003906 +0.018555 -3.841464 +0.853659 +2.134146
6258562 +1.007324 -0.000977 +0.026367 -3.841464 +0.853659 +2.256098
6258564 +1.006836 +0.003418 +0.021484 -4.024390 +1.097561 +2.134146
6258566 +1.006348 +0.003418 +0.023438 -3.780488 +1.097561 +1.890244
6258568 +1.005371 +0.005371 +0.032715 -3.841464 +0.914634 +2.134146
6258570 +1.006836 -0.001465 +0.015137 -4.024390 +0.914634 +2.195122
6258572 +1.004395 -0.008301 +0.025391 -3.902439 +0.853659 +2.134146
6258574 +1.000977 +0.000977 +0.026855 -3.841464 +0.853659 +2.134146
6258577 +1.003906 +0.002930 +0.024414 -3.841464 +1.036585 +2.012195
6258579 +1.005371 +0.001953 +0.027832 -3.841464 +0.853659 +2.012195
6258581 +1.006836 +0.000977 +0.030762 -4.024390 +0.792683 +1.951220
6258583 +1.002441 +0.000977 +0.028320 -3.841464 +0.975610 +2.073171
6258585 +1.007324 +0.001465 +0.030273 -3.902439 +0.914634 +2.256098
6258587 +1.009766 +0.006348 +0.029297 -3.902439 +0.792683 +2.012195
6258589 +1.005371 -0.005859 +0.024414 -3.780488 +0.853659 +2.134146
6258591 +1.005859 -0.006836 +0.021973 -4.024390 +0.731707 +2.012195
6258593 +1.004883 -0.000977 +0.024414 -3.780488 +0.914634 +2.317073
6258595 +0.999512 +0.002930 +0.030273 -3.719512 +0.914634 +2.134146
6258597 +1.006348 +0.001465 +0.023926 -3.902439 +0.975610 +2.134146
6258599 +1.005371 -0.000977 +0.031250 -3.841464 +0.853659 +2.134146
6258601 +1.007324 -0.009766 +0.026367 -3.902439 +0.975610 +2.012195
6258603 +1.007324 -0.002441 +0.020020 -3.780488 +0.853659 +2.073171
6258605 +1.006348 -0.002930 +0.037109 -3.841464 +0.731707 +2.073171
6258607 +1.005371 +0.000000 +0.029785 -3.780488 +0.914634 +2.134146
6258609 +1.007324 -0.003418 +0.017090 -3.963415 +0.975610 +2.073171
6258611 +1.005371 -0.006348 +0.025391 -3.841464 +0.853659 +2.073171
6258613 +1.004883 +0.003906 +0.027344 -3.780488 +0.914634 +2.012195
6258615 +1.006348 -0.007324 +0.026367 -3.780488 +0.853659 +1.829268
6258617 +1.007812 +0.000000 +0.030762 -3.780488 +0.914634 +2.134146
6258619 +1.005859 +0.003906 +0.023438 -3.841464 +0.792683 +2.012195
6258621 +1.008789 -0.001953 +0.030273 -3.841464 +0.731707 +1.890244
6258623 +1.007324 -0.000488 +0.026855 -3.841464 +0.914634 +2.073171
6258625 +1.006348 +0.002441 +0.023438 -3.902439 +0.914634 +2.378049
6258627 +1.003418 -0.000977 +0.026367 -3.902439 +0.914634 +1.890244
6258629 +1.002441 +0.000977 +0.031250 -3.963415 +0.853659 +2.012195
6258631 +1.002930 +0.004395 +0.025391 -3.719512 +0.853659 +2.134146
6258633 +1.008301 +0.000488 +0.024902 -3.780488 +0.731707 +2.134146
6258635 +1.004883 +0.003906 +0.027832 -3.780488 +0.792683 +2.317073
6258637 +1.011230 +0.002930 +0.018555 -3.841464 +1.036585 +2.134146
6258639 +0.998047 -0.001953 +0.029785 -3.902439 +0.792683 +2.012195
6258641 +1.009277 -0.004883 +0.031250 -3.963415 +0.670732 +2.012195
6258643 +1.003906 +0.000977 +0.028320 -3.963415 +0.670732 +2.195122
6258645 +1.004883 +0.002930 +0.029785 -3.719512 +0.914634 +2.134146
6258647 +1.013184 +0.001465 +0.029297 -3.719512 +0.853659 +2.012195
6258649 +1.009277 +0.001465 +0.018066 -3.902439 +0.731707 +2.256098
6258651 +1.008789 +0.005371 +0.015137 -3.780488 +0.975610 +2.195122
6258653 +1.004395 -0.001465 +0.021973 -3.963415 +0.792683 +2.073171
6258655 +1.010742 +0.000977 +0.020020 -3.902439 +0.792683 +2.134146
6258657 +1.009277 +0.000000 +0.026855 -3.963415 +0.670732 +1.890244
6258659 +1.000977 +0.000488 +0.021973 -3.963415 +1.158537 +2.134146
6258661 +1.003418 +0.000488 +0.025879 -3.902439 +0.975610 +2.195122
6258663 +1.005371 -0.000488 +0.026367 -3.841464 +0.914634 +2.073171
6258665 +1.000488 -0.003906 +0.025879 -3.902439 +0.792683 +2.134146
6258667 +1.008789 +0.004883 +0.020508 -3.902439 +0.975610 +1.951220
6258669 +1.010254 +0.003418 +0.027832 -3.780488 +0.914634 +2.012195
6258671 +1.004883 +0.005859 +0.026855 -4.024390 +0.853659 +2.134146
6258673 +1.005859 -0.003418 +0.029297 -3.780488 +1.036585 +2.073171
6258675 +1.002441 -0.002930 +0.025879 -3.719512 +0.914634 +2.012195
6258677 +1.003418 +0.001465 +0.024414 -3.902439 +1.036585 +2.073171
6258679 +1.006836 -0.004395 +0.037598 -3.841464 +0.609756 +2.012195
6258681 +1.003418 +0.001953 +0.025391 -3.902439 +0.914634 +2.256098
6258683 +1.010254 +0.006836 +0.022461 -3.902439 +1.036585 +2.256098
6258685 +1.011719 -0.002930 +0.022461 -3.902439 +0.975610 +1.829268
6258687 +1.009277 +0.003418 +0.024902 -3.902439 +1.158537 +2.256098
6258689 +1.014648 +0.004883 +0.023438 -3.963415 +0.853659 +2.195122
6258691 +1.006348 +0.003418 +0.020996 -3.841464 +0.914634 +2.317073
6258693 +1.010742 +0.000488 +0.027344 -3.902439 +0.853659 +2.134146
6258695 +1.009277 +0.000000 +0.030762 -3.902439 +1.097561 +2.073171
6258697 +1.007812 -0.000488 +0.026855 -3.780488 +0.975610 +2.134146
6258699 +1.004883 +0.001465 +0.028320 -3.780488 +0.914634 +2.073171
6258701 +1.001465 -0.000977 +0.019531 -3.902439 +0.975610 +2.134146
6258703 +1.005859 -0.001465 +0.034668 -3.902439 +0.853659 +2.378049
6258705 +1.007324 +0.000977 +0.029297 -3.963415 +0.975610 +2.134146
6258707 +1.001465 +0.000488 +0.032715 -3.963415 +0.853659 +1.951220
6258709 +1.009277 -0.002441 +0.022461 -4.024390 +0.792683 +1.951220
6258711 +1.014160 +0.000000 +0.031250 -3.963415 +0.853659 +2.195122
6258713 +1.000000 +0.000488 +0.028320 -3.841464 +0.914634 +2.073171
6258715 +1.009766 +0.000977 +0.027344 -4.024390 +0.792683 +2.134146
6258717 +1.009277 -0.000488 +0.029785 -3.963415 +0.975610 +2.134146
6258719 +1.010742 -0.002930 +0.020508 -3.841464 +0.792683 +1.951220
6258721 +1.008301 -0.000977 +0.030762 -3.963415 +0.853659 +2.073171
6258723 +1.003418 +0.002441 +0.022949 -3.902439 +0.792683 +2.073171
6258725 +1.009277 -0.000488 +0.028320 -3.780488 +0.731707 +2.256098
6258727 +1.005371 -0.006348 +0.027344 -3.902439 +0.853659 +2.073171
6258729 +1.004395 -0.002930 +0.019531 -3.719512 +0.792683 +2.073171
6258731 +1.001465 -0.000977 +0.031250 -3.841464 +0.853659 +2.134146
6258733 +1.011719 +0.009277 +0.036133 -3.719512 +1.036585 +2.012195
6258735 +1.003418 +0.001465 +0.030762 -3.780488 +0.853659 +2.134146
6258737 +1.004883 +0.000977 +0.012695 -3.841464 +0.792683 +2.195122
6258739 +1.000488 -0.003418 +0.026855 -3.902439 +1.158537 +2.134146
6258741 +1.006348 +0.001953 +0.020508 -3.780488 +0.792683 +2.012195
6258743 +1.005859 +0.004883 +0.021484 -3.719512 +0.731707 +2.195122
6258745 +1.001953 +0.001953 +0.029785 -4.024390 +1.097561 +2.134146
6258747 +1.011230 +0.007324 +0.020996 -3.780488 +0.792683 +2.195122
6258749 +1.006348 +0.000000 +0.028809 -4.024390 +0.731707 +1.890244
6258751 +1.011230 +0.001465 +0.028320 -3.902439 +0.914634 +2.073171
6258753 +1.006348 +0.004883 +0.031250 -3.902439 +0.792683 +2.012195
6258755 +1.010254 +0.008301 +0.028809 -3.841464 +1.036585 +2.256098
6258757 +1.008301 -0.002441 +0.025391 -3.902439 +0.792683 +2.073171
6258759 +1.006836 +0.003906 +0.020508 -3.963415 +0.853659 +1.890244
6258761 +1.013184 -0.000488 +0.031250 -3.780488 +0.792683 +2.134146
6258763 +1.011230 -0.000977 +0.035156 -3.841464 +0.975610 +2.073171
6258765 +1.001953 +0.000977 +0.024902 -4.024390 +0.670732 +1.890244
6258767 +1.007812 +0.000488 +0.019531 -4.024390 +0.914634 +2.195122
6258769 +1.006836 -0.007812 +0.020508 -3.780488 +0.731707 +2.195122
6258771 +1.000977 -0.004883 +0.027344 -3.963415 +0.853659 +2.073171
6258773 +1.007812 -0.005859 +0.025391 -3.719512 +0.853659 +2.073171
6258775 +1.002930 -0.003906 +0.015137 -3.719512 +0.914634 +2.195122
6258777 +1.001465 -0.000977 +0.033203 -3.841464 +0.975610 +2.195122
6258779 +1.004883 +0.001953 +0.030273 -3.841464 +0.792683 +2.195122
6258781 +1.005371 -0.002441 +0.025879 -3.902439 +0.914634 +2.073171
6258783 +1.006836 +0.001465 +0.039551 -3.780488 +0.792683 +1.951220
6258785 +1.006836 +0.002441 +0.031738 -3.902439 +0.792683 +2.012195
6258787 +1.008301 -0.002930 +0.022949 -3.719512 +0.853659 +2.317073
6258789 +1.006836 +0.000977 +0.030762 -3.780488 +0.731707 +2.134146
6258791 +1.003906 -0.000488 +0.023438 -3.841464 +0.792683 +2.134146
6258793 +1.010254 +0.001953 +0.029785 -3.902439 +0.975610 +2.012195
6258795 +1.005859 -0.001465 +0.024414 -3.780488 +0.914634 +1.951220
6258798 +1.004883 +0.002930 +0.022461 -3.963415 +0.792683 +2.195122
6258800 +1.010254 +0.005371 +0.039062 -3.780488 +0.975610 +2.073171
6258802 +1.006348 -0.003906 +0.018066 -3.719512 +1.036585 +2.073171
6258804 +1.007324 -0.001465 +0.026367 -3.841464 +0.975610 +2.073171
6258806 +1.002930 +0.002930 +0.028809 -3.780488 +0.792683 +2.195122
6258808 +1.006836 +0.003418 +0.029785 -3.841464 +0.853659 +1.951220
6258810 +1.010254 -0.004395 +0.026855 -3.719512 +0.853659 +2.073171
6258812 +1.002441 +0.001953 +0.025391 -3.780488 +0.853659 +1.951220
6258814 +1.013184 +0.002441 +0.028809 -3.780488 +0.853659 +2.195122
6258816 +1.004883 +0.005371 +0.027832 -3.719512 +0.853659 +2.134146
6258818 +1.006348 -0.001465 +0.026367 -3.719512 +0.975610 +2.256098
6258820 +1.010254 -0.001465 +0.019043 -3.902439 +0.792683 +2.134146
6258822 +1.010254 +0.000000 +0.023438 -3.841464 +0.914634 +1.890244
6258824 +1.008789 -0.004395 +0.019531 -3.841464 +0.853659 +2.073171
6258826 +1.008301 +0.002930 +0.011719 -3.780488 +0.792683 +2.195122
6258828 +1.002441 +0.001953 +0.028320 -3.780488 +0.670732 +2.073171
6258830 +1.006836 +0.003906 +0.023926 -3.780488 +0.975610 +1.951220
6258832 +1.006836 +0.000977 +0.020996 -3.780488 +0.792683 +2.073171
6258834 +1.010742 -0.004883 +0.028809 -3.841464 +0.975610 +2.317073
6258836 +1.007812 +0.001465 +0.026367 -3.841464 +0.853659 +2.134146
6258838 +1.013672 +0.002930 +0.022949 -3.780488 +0.914634 +2.012195
6258840 +1.007812 +0.003418 +0.028320 -3.902439 +0.792683 +2.134146
6258842 +1.009766 +0.002930 +0.027344 -3.902439 +1.036585 +2.073171
6258844 +1.001953 -0.000488 +0.019043 -3.780488 +0.975610 +2.134146
6258846 +1.010742 +0.004395 +0.024902 -3.841464 +0.914634 +2.073171
6258848 +1.013672 +0.000000 +0.038086 -3.841464 +0.731707 +2.195122
6258850 +1.007812 +0.000000 +0.028809 -3.841464 +0.975610 +2.073171
6258852 +1.005859 +0.005859 +0.023438 -3.780488 +0.975610 +2.134146
6258854 +1.004883 +0.003418 +0.029785 -3.902439 +0.914634 +2.012195
6258856 +1.006836 +0.004883 +0.027344 -3.963415 +1.097561 +2.317073
6258858 +1.003418 -0.000488 +0.028809 -3.780488 +0.853659 +1.707317
6258860 +1.010254 -0.007324 +0.026367 -3.780488 +0.914634 +2.134146
6258862 +1.013672 +0.001465 +0.027344 -3.902439 +0.975610 +2.012195
6258864 +1.005859 -0.003418 +0.026367 -3.963415 +0.914634 +2.195122
6258866 +1.002930 +0.001465 +0.033203 -3.841464 +0.914634 +2.195122
6258868 +1.009277 +0.002441 +0.030762 -3.780488 +0.731707 +2.195122
6258870 +1.004883 +0.000488 +0.026855 -3.963415 +0.853659 +2.073171
6258872 +1.010742 -0.000488 +0.024414 -3.902439 +0.853659 +2.134146
6258874 +1.005371 +0.000977 +0.031738 -3.780488 +0.975610 +2.195122
6258876 +1.007324 +0.002441 +0.025879 -3.780488 +0.914634 +1.951220
6258878 +1.011719 +0.001465 +0.037598 -3.780488 +0.670732 +2.073171
6258880 +1.005859 +0.000488 +0.024414 -4.024390 +0.792683 +2.134146
6258882 +1.011719 +0.004395 +0.025391 -3.780488 +0.914634 +2.195122
6258884 +1.007324 -0.000977 +0.021973 -3.902439 +0.853659 +2.073171
6258886 +1.004883 -0.000977 +0.030762 -3.902439 +0.914634 +2.256098
6258888 +1.008789 +0.003418 +0.025879 -3.902439 +0.914634 +2.134146
6258890 +1.004883 -0.000977 +0.023926 -3.841464 +0.975610 +1.890244
6258892 +1.007324 -0.001465 +0.024902 -3.841464 +0.975610 +2.073171
6258894 +1.003906 +0.002441 +0.039062 -3.841464 +0.914634 +2.256098
6258896 +1.002930 +0.000977 +0.020508 -3.902439 +0.914634 +2.134146
6258898 +1.005859 +0.002441 +0.025879 -3.780488 +1.036585 +2.012195
6258900 +1.004395 +0.000000 +0.019043 -3.841464 +0.975610 +2.256098
6258902 +1.008789 -0.004395 +0.021484 -3.841464 +0.670732 +2.195122
6258904 +1.006836 -0.001953 +0.026367 -3.841464 +1.036585 +2.012195
6258906 +1.005859 +0.005371 +0.031250 -3.963415 +0.853659 +2.195122
6258908 +1.004883 -0.003418 +0.023926 -3.963415 +0.853659 +2.195122
6258910 +1.008789 +0.005859 +0.020508 -3.963415 +0.853659 +2.134146
6258912 +1.008301 +0.001953 +0.019531 -3.841464 +0.670732 +2.256098
6258914 +1.006348 +0.001953 +0.022461 -3.902439 +0.914634 +2.256098
6258916 +1.006836 -0.000488 +0.034180 -3.902439 +0.670732 +2.012195
6258918 +1.002441 +0.005371 +0.022461 -3.841464 +0.853659 +2.256098
6258920 +1.007324 +0.002441 +0.015625 -4.024390 +0.853659 +2.134146
6258922 +1.000000 +0.003906 +0.024414 -3.780488 +0.975610 +2.073171
6258924 +1.004883 +0.000000 +0.021484 -3.963415 +0.853659 +1.951220
6258926 +1.005371 +0.000488 +0.028809 -3.841464 +0.731707 +2.134146
6258928 +0.999512 -0.000488 +0.024414 -3.841464 +1.036585 +2.195122
6258930 +1.006836 -0.000977 +0.029297 -3.841464 +0.670732 +2.073171
6258932 +1.009766 +0.000488 +0.025391 -3.780488 +0.975610 +2.195122
6258934 +1.010742 +0.004395 +0.024902 -3.841464 +0.914634 +1.951220
6258936 +1.007812 +0.002441 +0.022461 -4.085366 +0.975610 +2.195122
6258938 +1.007324 -0.003418 +0.028809 -3.902439 +0.792683 +2.134146
6258940 +1.011719 +0.003906 +0.026367 -3.780488 +1.158537 +2.073171
6258942 +1.010742 -0.002441 +0.034180 -3.902439 +0.731707 +2.195122
6258944 +1.003418 -0.001953 +0.026855 -3.902439 +0.731707 +2.256098
6258946 +1.005371 -0.002930 +0.022461 -3.902439 +0.670732 +2.073171
6258948 +1.006348 +0.000488 +0.027344 -3.841464 +0.792683 +2.134146
6258950 +1.004395 -0.003418 +0.034180 -3.719512 +0.975610 +2.256098
6258952 +1.006836 +0.005859 +0.030762 -3.963415 +0.731707 +2.195122
6258954 +1.006348 -0.001465 +0.033203 -3.902439 +0.792683 +2.073171
6258956 +1.011719 +0.000000 +0.022461 -3.841464 +0.670732 +2.256098
6258958 +1.010742 -0.000488 +0.020508 -3.963415 +0.853659 +1.951220
6258960 +1.008789 +0.000000 +0.025391 -3.902439 +0.914634 +2.134146
6258962 +1.003906 -0.002930 +0.033203 -3.841464 +1.036585 +2.195122
6258964 +1.008301 -0.002930 +0.028809 -3.841464 +1.097561 +2.195122
6258966 +1.008789 +0.002441 +0.025391 -3.780488 +0.975610 +2.073171
6258968 +1.009766 +0.000000 +0.029297 -3.902439 +0.975610 +2.134146
6258970 +1.007812 +0.003418 +0.025879 -3.902439 +0.792683 +2.134146
6258972 +1.001953 +0.000977 +0.024414 -3.902439 +0.914634 +2.134146
6258974 +1.004883 -0.001953 +0.032715 -3.841464 +0.792683 +1.951220
6258976 +1.006348 -0.002441 +0.016602 -3.841464 +0.853659 +2.073171
6258978 +1.002441 +0.001465 +0.034668 -3.780488 +0.670732 +2.134146
6258980 +1.000000 +0.000977 +0.033203 -3.841464 +0.792683 +2.073171
6258982 +1.006348 +0.001953 +0.023926 -3.719512 +0.914634 +2.073171
6258984 +1.012695 +0.005371 +0.032227 -3.841464 +0.975610 +2.134146
6258986 +1.004883 -0.003906 +0.028809 -3.780488 +0.853659 +2.134146
6258988 +1.008789 -0.003418 +0.035156 -3.719512 +0.792683 +2.012195
6258990 +1.005859 +0.004883 +0.031250 -3.841464 +0.975610 +2.195122
6258992 +1.011719 -0.001465 +0.033691 -3.963415 +0.792683 +1.951220
6258994 +1.001465 +0.000000 +0.030762 -3.658537 +0.975610 +2.073171
6258996 +1.006836 -0.002441 +0.024902 -3.902439 +0.975610 +2.012195
6258998 +1.006836 +0.001953 +0.017578 -3.719512 +0.853659 +1.951220
6259000 +1.004883 +0.000488 +0.019531 -3.841464 +0.914634 +1.951220
6259002 +1.007812 -0.000488 +0.025391 -3.780488 +0.792683 +2.195122
6259004 +1.009277 -0.002930 +0.017578 -3.841464 +0.853659 +2.073171
6259006 +1.011230 +0.000977 +0.017578 -3.902439 +0.914634 +1.951220
6259008 +1.003906 +0.004395 +0.037109 -3.719512 +0.975610 +2.195122
6259010 +1.009766 +0.006348 +0.027832 -3.963415 +0.914634 +2.134146
6259012 +1.006836 +0.002930 +0.019043 -3.902439 +0.731707 +2.073171
6259014 +1.005371 +0.002930 +0.020020 -3.780488 +0.914634 +2.073171
6259016 +1.004395 +0.004395 +0.021973 -3.902439 +0.853659 +2.134146
6259019 +1.010742 +0.002930 +0.017578 -3.902439 +0.975610 +2.012195
6259021 +1.004883 -0.001953 +0.023926 -3.902439 +0.792683 +2.134146
6259023 +1.012207 +0.000977 +0.018555 -3.780488 +0.975610 +2.012195
6259025 +1.002930 +0.002441 +0.022461 -3.902439 +0.853659 +2.073171
6259027 +1.006348 +0.003418 +0.019043 -3.963415 +0.914634 +2.073171
6259029 +1.006348 +0.008301 +0.030273 -3.902439 +0.853659 +1.829268
6259031 +1.007812 -0.001953 +0.026367 -4.024390 +0.731707 +2.195122
6259033 +1.008789 +0.003906 +0.017578 -3.902439 +1.036585 +2.195122
6259035 +1.008301 -0.005859 +0.025391 -3.902439 +0.853659 +2.073171
6259037 +1.004883 +0.001953 +0.022949 -3.902439 +1.097561 +1.829268
6259039 +1.008301 -0.003906 +0.018555 -3.902439 +0.792683 +2.195122
6259041 +1.005859 +0.000488 +0.030273 -3.841464 +0.853659 +2.256098
6259043 +1.003418 -0.001953 +0.025391 -4.024390 +0.792683 +2.073171
6259045 +1.006836 -0.000488 +0.020508 -3.780488 +0.792683 +2.195122
6259047 +1.006348 -0.000488 +0.015625 -3.780488 +0.853659 +2.073171
6259049 +1.007324 +0.000977 +0.028809 -3.963415 +1.036585 +2.134146
6259051 +1.005371 +0.001953 +0.021973 -3.780488 +0.914634 +2.317073
6259053 +1.003418 -0.003418 +0.027832 -3.963415 +0.914634 +2.256098
6259055 +1.007812 -0.005371 +0.017090 -3.902439 +0.914634 +2.012195
6259057 +1.008789 +0.001465 +0.023438 -3.902439 +0.914634 +2.256098
6259059 +1.007812 -0.000488 +0.026855 -3.841464 +0.853659 +2.317073
6259061 +1.009277 +0.000488 +0.029297 -3.963415 +0.975610 +2.256098
6259063 +1.001953 -0.000488 +0.024902 -3.780488 +0.914634 +2.195122
6259065 +1.006348 +0.000000 +0.025879 -3.902439 +0.792683 +1.951220
6259067 +1.009766 -0.001953 +0.028809 -3.902439 +0.853659 +2.012195
6259069 +1.008301 +0.001465 +0.030273 -3.841464 +0.853659 +2.256098
6259071 +1.010742 +0.002441 +0.024902 -3.780488 +1.036585 +2.256098
6259073 +1.003906 +0.002930 +0.026855 -4.024390 +0.914634 +1.951220
6259075 +1.011230 -0.000488 +0.031738 -3.963415 +0.792683 +2.073171
6259077 +1.004395 -0.000977 +0.030762 -3.963415 +0.853659 +2.256098
6259079 +0.996094 -0.002441 +0.031250 -3.841464 +0.914634 +1.890244
6259081 +1.005371 -0.002441 +0.021973 -3.780488 +0.670732 +1.890244
6259083 +1.009277 +0.000000 +0.030273 -3.841464 +0.792683 +2.195122
6259085 +1.004395 -0.000488 +0.017578 -3.841464 +0.914634 +2.012195
6259087 +1.007812 -0.002441 +0.024414 -3.902439 +0.853659 +2.195122
6259089 +1.002441 +0.001465 +0.025391 -3.841464 +0.853659 +2.073171
6259091 +1.004883 +0.004883 +0.033691 -3.902439 +0.914634 +2.134146
6259093 +1.003418 -0.000488 +0.023438 -3.963415 +1.036585 +2.256098
6259095 +1.008789 +0.000000 +0.026855 -3.841464 +0.792683 +2.134146
6259097 +1.006348 +0.000000 +0.020508 -3.841464 +0.792683 +2.012195
6259099 +1.003418 +0.000977 +0.023926 -3.780488 +1.036585 +2.073171
6259101 +1.006348 +0.003418 +0.031250 -3.780488 +0.731707 +2.195122
6259103 +1.008301 -0.000488 +0.024902 -3.963415 +0.731707 +2.195122
6259105 +1.009766 +0.003906 +0.026855 -3.841464 +0.853659 +2.073171
6259107 +1.008789 +0.000000 +0.024414 -3.780488 +0.792683 +2.134146
6259109 +1.004883 +0.001953 +0.031738 -3.658537 +0.914634 +2.073171
6259111 +1.011230 -0.000977 +0.029297 -3.902439 +0.914634 +2.134146
6259113 +1.003906 -0.008301 +0.027344 -3.719512 +1.036585 +2.317073
6259115 +1.006348 +0.001953 +0.031738 -3.963415 +0.731707 +1.951220
6259117 +1.005371 -0.005859 +0.021973 -3.902439 +0.975610 +2.195122
6259119 +1.009277 +0.001465 +0.025391 -3.902439 +0.731707 +2.012195
6259121 +1.006348 +0.001465 +0.028320 -3.902439 +0.853659 +2.134146
6259123 +1.010742 +0.000977 +0.023438 -3.902439 +0.731707 +2.134146
6259125 +1.005371 -0.000488 +0.023438 -3.719512 +0.609756 +2.073171
6259127 +1.002930 -0.000977 +0.035156 -3.780488 +0.975610 +2.195122
6259129 +1.003906 -0.001953 +0.028809 -3.780488 +0.792683 +2.134146
6259131 +1.009766 -0.001465 +0.025879 -3.841464 +0.792683 +2.073171
6259133 +1.010254 +0.002930 +0.031738 -3.963415 +1.158537 +2.195122
6259135 +1.005859 -0.003906 +0.022949 -3.841464 +0.731707 +2.134146
6259137 +1.007812 +0.001953 +0.029785 -3.902439 +0.792683 +2.012195
6259139 +1.004395 +0.001953 +0.029297 -3.963415 +0.914634 +2.134146
6259141 +1.008301 +0.006836 +0.026855 -3.841464 +0.792683 +2.073171
6259143 +1.005371 -0.000488 +0.025879 -3.841464 +0.914634 +2.134146
6259145 +1.004883 +0.001465 +0.031250 -3.841464 +0.792683 +2.256098
6259147 +1.013184 -0.002930 +0.028320 -3.841464 +0.975610 +2.134146
6259149 +1.009277 +0.000000 +0.030762 -3.780488 +0.731707 +1.890244
6259151 +1.014160 +0.000977 +0.030762 -3.841464 +1.036585 +2.134146
6259153 +1.007324 -0.005371 +0.025391 -3.719512 +0.975610 +1.890244
6259155 +1.002930 -0.002441 +0.023438 -3.780488 +1.097561 +2.378049
6259157 +1.002441 +0.000977 +0.022949 -3.841464 +0.853659 +2.073171
6259159 +1.003418 -0.001953 +0.025391 -3.963415 +0.731707 +1.951220
6259161 +1.010742 -0.003418 +0.028320 -3.902439 +0.914634 +2.378049
6259163 +1.011719 +0.003906 +0.025391 -3.719512 +0.914634 +2.134146
6259165 +1.003906 +0.004395 +0.025879 -3.902439 +0.853659 +2.073171
6259167 +1.003418 -0.000488 +0.023926 -3.841464 +0.853659 +1.890244
6259169 +1.000488 +0.001465 +0.019043 -3.841464 +0.853659 +2.012195
6259171 +1.012695 +0.000977 +0.019531 -3.902439 +0.792683 +1.951220
6259173 +1.007812 +0.003418 +0.024414 -3.841464 +0.914634 +2.195122
6259175 +1.008789 +0.001465 +0.031250 -3.719512 +0.853659 +2.195122
6259177 +1.005371 -0.000488 +0.026855 -3.963415 +0.670732 +2.073171
6259179 +1.003906 -0.002930 +0.021973 -3.658537 +0.914634 +2.012195
6259181 +1.002441 -0.000977 +0.024414 -3.780488 +0.792683 +2.012195
6259183 +1.005859 +0.004883 +0.027832 -3.902439 +0.914634 +2.317073
6259185 +1.014648 +0.002930 +0.021484 -3.780488 +0.853659 +2.012195
6259187 +1.011230 +0.005371 +0.026855 -3.841464 +0.609756 +2.195122
6259189 +1.007812 +0.002930 +0.026367 -3.841464 +0.853659 +1.951220
6259191 +1.012695 +0.003418 +0.026367 -3.841464 +0.731707 +2.073171
6259193 +1.006836 -0.002441 +0.023926 -3.780488 +0.792683 +2.073171
6259195 +1.002930 -0.000488 +0.026855 -3.963415 +0.975610 +2.134146
6259197 +1.004395 +0.002930 +0.018555 -3.902439 +0.792683 +2.073171
6259199 +1.010254 -0.003906 +0.026367 -3.841464 +0.792683 +1.951220
6259201 +1.001953 +0.002930 +0.020996 -3.841464 +0.975610 +2.012195
6259203 +1.011719 +0.005371 +0.030762 -4.024390 +0.853659 +1.890244
6259205 +1.008301 +0.003418 +0.029297 -3.780488 +1.036585 +2.073171
6259207 +1.006836 +0.001465 +0.023438 -3.719512 +0.975610 +2.195122
6259209 +1.002930 -0.002441 +0.033691 -3.841464 +0.853659 +2.256098
6259211 +1.004395 +0.003418 +0.016113 -3.841464 +1.036585 +2.195122
6259213 +1.009277 +0.001465 +0.019043 -3.841464 +0.853659 +2.073171
6259215 +1.009277 +0.000488 +0.025391 -3.902439 +0.792683 +2.134146
6259217 +1.003418 +0.006348 +0.023438 -3.841464 +0.548781 +2.195122
6259219 +1.010742 +0.002441 +0.034180 -3.841464 +0.914634 +2.195122
6259221 +1.007324 -0.000977 +0.030762 -4.024390 +0.975610 +1.890244
6259223 +1.005371 +0.000977 +0.033203 -3.902439 +0.853659 +2.256098
6259225 +1.011719 +0.005371 +0.019043 -3.902439 +0.792683 +2.012195
6259227 +1.007324 -0.003906 +0.022461 -3.963415 +0.853659 +2.073171
6259229 +1.008301 +0.000000 +0.028320 -3.902439 +0.914634 +2.134146
6259231 +1.005859 -0.000488 +0.022461 -3.902439 +0.975610 +2.195122
6259233 +1.011719 -0.001953 +0.032227 -3.902439 +0.975610 +2.073171
6259235 +1.008789 -0.001953 +0.030273 -3.841464 +0.792683 +2.134146
6259237 +1.003418 -0.003906 +0.026855 -3.780488 +0.670732 +2.073171
6259240 +1.005371 +0.001953 +0.027344 -3.902439 +0.975610 +1.951220
6259242 +1.008789 -0.002441 +0.021973 -3.902439 +0.975610 +2.256098
6259244 +1.004395 -0.003906 +0.031250 -3.841464 +0.731707 +2.134146
6259246 +1.005859 -0.002930 +0.027832 -3.902439 +0.609756 +2.012195
6259248 +1.010254 +0.004883 +0.027832 -3.780488 +0.792683 +1.890244
6259250 +1.005859 +0.001465 +0.027832 -3.902439 +0.792683 +2.012195
6259252 +1.009766 +0.001465 +0.030273 -3.902439 +1.036585 +2.195122
6259254 +1.002930 -0.001953 +0.024414 -3.902439 +0.853659 +2.012195
6259256 +1.007812 +0.000977 +0.026855 -3.841464 +0.853659 +2.073171
6259258 +1.009277 +0.001953 +0.032227 -3.902439 +0.792683 +2.134146
6259260 +1.007812 +0.000977 +0.027344 -3.963415 +0.853659 +2.195122
6259262 +1.007324 +0.001953 +0.028809 -3.841464 +0.792683 +1.890244
6259264 +1.003418 +0.004395 +0.029785 -3.841464 +0.914634 +2.134146
6259266 +1.006836 -0.003906 +0.018555 -3.841464 +0.914634 +2.073171
6259268 +1.010254 -0.001465 +0.034668 -3.780488 +0.914634 +1.890244
6259270 +1.010742 -0.001953 +0.025391 -3.780488 +0.914634 +2.134146
6259272 +1.005859 -0.002441 +0.024414 -3.902439 +0.914634 +2.256098
6259274 +1.006836 +0.002441 +0.020996 -3.719512 +0.914634 +2.195122
6259276 +1.008789 +0.000488 +0.023926 -3.963415 +0.853659 +2.256098
6259278 +1.008301 -0.006836 +0.020508 -3.719512 +1.036585 +2.073171
6259280 +1.010742 -0.002441 +0.023438 -3.902439 +0.975610 +2.256098
6259282 +1.006348 +0.002441 +0.020996 -3.841464 +0.670732 +2.134146
6259284 +1.004395 +0.003418 +0.022949 -3.963415 +0.792683 +2.134146
6259286 +1.010742 +0.005371 +0.022949 -3.719512 +0.731707 +2.073171
6259288 +1.006836 +0.002441 +0.033203 -3.780488 +0.975610 +2.073171
6259290 +1.006348 -0.001953 +0.024414 -3.902439 +0.853659 +2.195122
6259292 +1.009766 +0.002441 +0.029297 -3.719512 +0.914634 +2.073171
6259294 +1.003906 +0.001465 +0.023926 -4.024390 +0.792683 +1.951220
6259296 +1.009277 +0.000488 +0.024902 -4.024390 +0.731707 +2.134146
6259298 +1.002441 +0.002930 +0.033203 -3.902439 +0.853659 +2.195122
6259300 +1.008301 +0.002930 +0.027832 -3.841464 +0.914634 +1.890244
6259302 +1.005371 +0.001953 +0.024902 -3.902439 +0.731707 +2.256098
6259304 +1.004883 +0.000000 +0.028809 -3.902439 +1.036585 +2.073171
6259306 +1.012207 -0.000977 +0.026855 -3.841464 +0.792683 +2.195122
6259308 +1.005371 -0.003418 +0.032227 -3.841464 +0.792683 +2.195122
6259310 +1.004395 +0.000000 +0.020996 -3.841464 +0.975610 +2.195122
6259312 +1.011230 +0.004395 +0.032715 -3.902439 +0.914634 +2.012195
6259314 +1.007812 -0.001465 +0.030762 -3.902439 +0.609756 +1.951220
6259316 +1.004395 +0.005371 +0.027344 -3.963415 +0.670732 +1.951220
6259318 +1.005859 -0.000488 +0.029785 -3.902439 +0.731707 +2.317073
6259320 +1.010742 +0.003418 +0.028320 -3.963415 +0.853659 +2.256098
6259322 +1.004883 +0.004395 +0.026367 -3.902439 +0.792683 +2.012195
6259324 +1.011719 +0.000488 +0.023438 -3.780488 +0.914634 +2.195122
6259326 +1.008789 -0.004395 +0.025879 -3.963415 +0.731707 +2.134146
6259328 +1.005371 +0.001953 +0.027344 -3.780488 +0.670732 +2.073171
6259330 +0.998047 +0.001465 +0.022949 -3.841464 +0.975610 +2.195122
6259332 +1.003418 +0.000977 +0.034668 -3.963415 +0.975610 +2.134146
6259334 +1.005859 +0.003906 +0.030762 -3.902439 +0.853659 +2.073171
6259336 +1.006348 -0.001953 +0.024414 -3.841464 +0.792683 +2.134146
6259338 +1.005859 +0.001953 +0.025391 -3.902439 +0.853659 +2.012195
6259340 +1.007324 -0.005859 +0.032715 -3.658537 +0.853659 +2.134146
6259342 +1.006836 +0.000000 +0.028320 -3.902439 +0.914634 +2.195122
6259344 +1.005859 +0.000977 +0.027344 -3.902439 +0.975610 +2.195122
6259346 +1.005371 -0.000488 +0.027344 -3.841464 +0.670732 +2.073171
6259348 +1.008301 -0.002441 +0.025391 -3.719512 +0.792683 +2.256098
6259350 +1.005371 -0.002930 +0.027344 -3.719512 +0.731707 +1.890244
6259352 +1.008789 -0.000488 +0.034668 -3.658537 +0.975610 +2.317073
6259354 +1.008789 -0.000977 +0.021484 -3.780488 +0.975610 +2.134146
6259356 +1.008789 +0.004395 +0.029785 -4.024390 +0.609756 +2.012195
6259358 +1.008789 -0.001465 +0.024414 -3.841464 +0.853659 +2.012195
6259360 +1.006348 +0.000977 +0.031738 -3.963415 +0.792683 +2.012195
6259362 +1.006348 +0.003906 +0.023926 -3.841464 +0.975610 +1.951220
6259364 +1.007324 +0.001465 +0.022461 -3.963415 +0.853659 +2.073171
6259366 +1.006836 +0.004883 +0.026367 -3.841464 +0.853659 +2.195122
6259368 +1.013672 +0.000977 +0.034180 -3.780488 +0.853659 +1.951220
6259370 +1.006348 +0.005371 +0.024414 -3.841464 +0.975610 +2.012195
6259372 +1.008789 +0.001953 +0.026855 -3.841464 +1.097561 +2.073171
6259374 +1.008789 -0.005371 +0.026855 -4.024390 +0.792683 +2.073171
6259376 +1.007812 +0.005371 +0.034180 -3.841464 +0.914634 +2.256098
6259378 +1.007812 -0.000977 +0.027832 -3.780488 +1.097561 +2.073171
6259380 +1.001953 +0.003418 +0.022949 -3.902439 +1.036585 +2.012195
6259382 +1.007324 +0.000000 +0.021973 -3.780488 +0.975610 +2.134146
6259384 +1.005859 -0.001465 +0.020996 -3.780488 +0.975610 +2.012195
6259386 +1.006836 +0.005859 +0.022949 -3.841464 +0.975610 +2.195122
6259388 +1.008789 +0.003906 +0.026855 -3.902439 +0.792683 +2.378049
6259390 +1.008789 +0.001465 +0.024902 -3.902439 +0.792683 +2.256098
6259392 +1.002441 -0.001953 +0.028320 -3.902439 +0.975610 +2.012195
6259394 +1.004395 -0.004395 +0.028320 -3.719512 +0.853659 +2.256098
6259396 +1.008789 +0.000977 +0.030762 -3.719512 +0.914634 +2.134146
6259398 +1.008789 -0.005371 +0.026855 -3.841464 +0.670732 +2.134146
6259400 +1.005859 -0.001953 +0.026367 -3.902439 +0.975610 +2.073171
6259402 +1.003418 -0.001465 +0.020020 -3.841464 +0.975610 +2.195122
6259404 +1.009277 +0.001465 +0.024902 -3.780488 +0.853659 +2.195122
6259406 +1.005371 +0.001953 +0.023926 -3.841464 +0.914634 +1.890244
6259408 +1.009766 +0.006348 +0.024414 -3.841464 +0.731707 +2.012195
6259410 +1.011719 +0.005371 +0.027344 -3.902439 +0.731707 +2.073171
6259412 +1.007324 -0.000977 +0.023926 -4.024390 +0.975610 +2.012195
6259414 +1.004883 +0.001953 +0.020508 -3.902439 +0.792683 +2.073171
6259416 +1.008301 -0.002441 +0.019043 -4.024390 +0.914634 +2.134146
6259418 +1.009277 +0.000488 +0.029785 -3.780488 +0.975610 +2.256098
6259420 +1.014648 +0.001465 +0.026855 -3.902439 +0.792683 +2.012195
6259422 +1.000000 -0.001953 +0.027344 -3.902439 +1.036585 +2.012195
6259424 +1.008301 -0.002930 +0.026367 -3.963415 +0.914634 +2.134146
6259426 +1.007324 +0.000488 +0.023438 -3.841464 +0.792683 +1.951220
6259428 +1.005371 -0.002441 +0.033691 -4.024390 +0.914634 +2.073171
6259430 +1.005859 -0.001465 +0.026855 -3.780488 +0.975610 +2.195122
6259432 +1.004883 +0.003418 +0.027344 -3.841464 +0.914634 +2.134146
6259434 +1.009277 +0.004883 +0.027344 -3.841464 +0.914634 +2.073171
6259436 +1.001465 +0.003906 +0.037109 -3.841464 +0.853659 +1.890244
6259438 +1.007812 -0.001953 +0.032227 -3.719512 +0.731707 +2.134146
6259440 +1.002441 +0.001953 +0.030273 -3.841464 +0.914634 +2.256098
6259442 +1.004883 +0.001953 +0.032715 -3.902439 +0.914634 +1.951220
6259444 +1.002930 -0.000977 +0.029297 -3.902439 +0.853659 +2.012195
6259446 +1.007324 -0.000977 +0.021484 -3.902439 +1.036585 +2.134146
6259448 +1.007324 +0.002930 +0.028320 -3.902439 +0.731707 +2.256098
6259450 +1.009277 -0.003418 +0.026855 -4.024390 +0.975610 +1.951220
6259452 +1.003418 -0.003906 +0.024414 -3.780488 +0.914634 +2.073171
6259454 +1.003418 -0.003906 +0.031250 -3.780488 +0.792683 +2.195122
6259456 +1.011719 -0.000488 +0.025879 -3.902439 +0.914634 +2.012195
6259458 +1.007324 +0.000977 +0.029785 -3.841464 +0.914634 +2.134146
6259461 +1.006348 -0.004883 +0.028320 -3.780488 +0.914634 +2.195122
6259463 +1.009766 -0.000977 +0.025879 -3.902439 +0.792683 +2.195122
6259465 +1.007324 +0.000488 +0.030273 -3.902439 +0.670732 +2.073171
6259467 +1.008301 +0.002441 +0.034180 -3.963415 +0.853659 +2.134146
6259469 +1.007812 +0.006836 +0.022461 -3.841464 +0.914634 +2.195122
6259471 +1.006836 -0.001465 +0.024902 -3.841464 +0.853659 +2.073171
6259473 +1.013184 -0.004883 +0.025879 -3.902439 +1.036585 +1.951220
6259475 +1.007812 +0.000000 +0.029297 -4.024390 +0.914634 +2.012195
6259477 +1.001953 -0.001465 +0.023926 -3.902439 +0.975610 +1.890244
6259479 +1.004395 +0.000488 +0.022461 -3.902439 +0.731707 +2.195122
6259481 +1.009277 -0.000488 +0.029785 -3.841464 +0.914634 +2.073171
6259483 +1.005859 -0.003906 +0.025391 -3.902439 +0.975610 +1.890244
6259485 +1.010742 +0.001465 +0.021973 -3.719512 +0.975610 +2.134146
6259487 +1.007812 -0.000977 +0.023926 -3.719512 +0.914634 +2.195122
6259489 +1.009277 +0.004395 +0.034180 -3.963415 +0.792683 +2.195122
6259491 +1.010254 -0.002441 +0.027832 -4.024390 +0.975610 +2.195122
6259493 +1.005859 +0.001465 +0.032715 -3.963415 +0.731707 +2.317073
6259495 +1.010254 +0.004395 +0.037109 -3.841464 +0.792683 +2.317073
6259497 +1.007324 +0.007812 +0.031250 -3.841464 +0.792683 +2.195122
6259499 +1.005859 -0.003418 +0.032715 -3.902439 +0.914634 +2.195122
6259501 +1.006348 +0.001465 +0.037598 -3.841464 +0.853659 +1.951220
6259503 +1.003906 -0.000977 +0.030762 -3.963415 +0.731707 +2.195122
6259505 +1.009277 -0.001465 +0.030273 -3.963415 +0.853659 +2.134146
6259507 +1.012695 +0.002930 +0.031250 -3.780488 +0.914634 +2.012195
6259509 +1.013184 +0.005859 +0.024414 -3.902439 +0.914634 +2.134146
6259511 +1.010254 +0.000000 +0.030273 -3.780488 +0.731707 +2.195122
6259513 +1.005371 -0.002441 +0.032227 -3.780488 +0.731707 +1.890244
6259515 +1.010742 +0.001953 +0.027832 -3.902439 +0.975610 +2.256098
6259517 +1.005859 +0.000000 +0.035645 -3.841464 +0.853659 +2.012195
6259519 +1.008789 -0.005371 +0.039062 -3.841464 +0.853659 +2.012195
6259521 +1.007812 -0.002441 +0.021973 -3.780488 +0.914634 +2.073171
6259523 +0.999023 +0.000977 +0.023438 -3.780488 +0.792683 +2.012195
6259525 +1.005371 +0.003906 +0.022461 -3.780488 +0.975610 +2.073171
6259527 +1.015625 +0.003906 +0.031738 -3.841464 +0.853659 +2.073171
6259529 +1.002441 -0.000977 +0.028809 -3.902439 +0.853659 +2.073171
6259531 +1.006348 +0.000488 +0.027344 -3.719512 +0.853659 +2.073171
6259533 +1.006348 +0.000977 +0.027344 -3.902439 +0.975610 +2.073171
6259535 +1.003906 -0.000488 +0.041992 -3.841464 +0.975610 +2.012195
6259537 +1.007324 +0.000488 +0.024414 -3.963415 +0.670732 +2.073171
6259539 +1.008301 +0.000977 +0.026367 -3.902439 +0.853659 +2.256098
6259541 +1.004883 +0.000000 +0.027344 -3.841464 +0.914634 +2.012195
6259543 +1.006836 +0.003906 +0.023926 -3.902439 +0.792683 +2.012195
6259545 +1.008301 +0.001953 +0.028320 -3.841464 +1.036585 +2.073171
6259547 +1.008301 -0.001465 +0.022949 -3.963415 +0.853659 +2.134146
6259549 +1.006836 -0.002441 +0.026855 -3.902439 +0.792683 +1.951220
6259551 +1.001465 -0.000488 +0.023926 -3.841464 +0.914634 +1.951220
6259553 +1.004395 +0.001953 +0.024902 -3.780488 +0.914634 +1.951220
6259555 +1.007324 +0.004395 +0.025879 -3.963415 +0.853659 +2.073171
6259557 +1.005371 +0.002441 +0.020508 -3.841464 +0.792683 +2.195122
6259559 +1.008789 +0.002441 +0.023438 -3.963415 +0.853659 +2.073171
6259561 +1.012207 +0.003418 +0.020020 -3.963415 +0.792683 +2.134146
6259563 +1.007324 +0.007812 +0.024414 -3.963415 +0.853659 +2.256098
6259565 +1.008789 +0.001465 +0.024902 -3.902439 +0.975610 +2.256098
6259567 +1.010254 +0.000000 +0.023926 -3.780488 +0.792683 +2.073171
6259569 +1.007324 +0.003906 +0.025391 -3.841464 +0.914634 +2.073171
6259571 +1.003906 +0.000977 +0.022461 -3.963415 +0.914634 +2.134146
6259573 +1.006836 +0.007324 +0.024902 -3.963415 +1.036585 +2.134146
6259575 +1.007324 -0.000977 +0.027832 -3.902439 +0.792683 +2.073171
6259577 +1.006348 +0.003906 +0.027344 -3.963415 +0.670732 +2.134146
6259579 +1.006348 +0.002441 +0.018555 -3.963415 +0.792683 +2.073171
6259581 +1.013184 -0.000977 +0.024902 -3.780488 +0.792683 +2.134146
6259583 +1.010254 +0.003418 +0.032715 -3.841464 +0.914634 +2.195122
6259585 +1.005859 +0.000977 +0.036133 -3.963415 +0.914634 +2.134146
6259587 +1.009766 +0.004395 +0.013672 -3.902439 +0.914634 +2.134146
6259589 +1.007324 +0.002441 +0.020020 -4.085366 +0.914634 +2.195122
6259591 +1.006836 +0.004395 +0.031738 -3.841464 +0.853659 +2.195122
6259593 +1.004395 +0.000977 +0.024414 -3.841464 +0.853659 +2.073171
6259595 +1.004395 +0.000488 +0.022949 -3.841464 +0.975610 +2.134146
6259597 +1.004395 -0.002441 +0.033691 -3.902439 +0.792683 +2.256098
6259599 +1.008789 -0.003906 +0.031250 -4.024390 +0.975610 +2.134146
6259601 +1.005371 -0.003418 +0.027344 -3.841464 +0.914634 +2.012195
6259603 +1.010254 -0.003906 +0.027344 -3.841464 +0.792683 +2.073171
6259605 +1.008789 +0.000000 +0.022461 -3.841464 +0.853659 +2.012195
6259607 +1.006348 +0.000488 +0.020996 -3.902439 +0.914634 +2.195122
6259609 +1.007812 +0.000488 +0.027344 -3.841464 +0.731707 +2.073171
6259611 +1.006348 +0.002441 +0.035156 -3.780488 +0.792683 +1.951220
6259613 +1.009277 -0.003418 +0.026855 -3.841464 +0.975610 +2.317073
6259615 +1.003906 +0.004395 +0.035156 -3.963415 +0.670732 +2.012195
6259617 +1.006836 +0.002930 +0.021484 -3.963415 +0.975610 +2.073171
6259619 +1.008789 -0.003418 +0.022949 -3.902439 +0.914634 +2.195122
6259621 +1.003418 -0.000977 +0.024902 -3.841464 +0.853659 +2.012195
6259623 +1.008789 +0.005371 +0.026367 -3.902439 +1.036585 +2.073171
6259625 +1.008301 -0.007324 +0.024902 -3.841464 +0.853659 +2.317073
6259627 +1.011230 +0.000000 +0.027344 -4.024390 +0.792683 +2.195122
6259629 +1.004883 -0.001465 +0.029297 -3.780488 +0.853659 +2.073171
6259631 +1.006348 -0.003906 +0.031738 -3.719512 +0.853659 +2.012195
6259633 +1.000977 +0.002441 +0.027344 -3.719512 +0.975610 +1.951220
6259635 +1.008789 +0.001465 +0.028809 -3.963415 +0.914634 +2.134146
6259637 +1.002441 +0.001465 +0.027832 -3.963415 +0.609756 +1.951220
6259639 +1.008789 +0.001465 +0.024414 -3.841464 +0.609756 +1.951220
6259641 +1.007812 -0.002441 +0.025879 -3.963415 +0.853659 +2.073171
6259643 +1.010254 -0.001465 +0.022461 -3.841464 +0.792683 +2.195122
6259645 +1.010742 +0.001953 +0.025391 -3.841464 +0.975610 +2.073171
6259647 +1.005371 -0.003906 +0.026367 -3.902439 +0.975610 +2.195122
6259649 +1.008789 -0.000977 +0.029297 -3.841464 +0.914634 +2.195122
6259651 +1.011719 +0.000000 +0.028809 -3.963415 +0.853659 +2.195122
6259653 +1.006836 +0.000000 +0.025879 -3.780488 +0.853659 +1.951220
6259655 +1.005371 -0.000488 +0.024902 -3.780488 +0.975610 +2.012195
6259657 +1.007324 -0.001465 +0.029785 -3.841464 +0.670732 +2.256098
6259659 +1.006836 +0.005371 +0.021484 -3.902439 +0.853659 +2.012195
6259661 +1.011719 -0.002930 +0.028809 -3.963415 +1.097561 +2.195122
6259663 +1.007324 -0.001953 +0.033691 -3.902439 +1.097561 +2.073171
6259665 +1.005371 -0.000977 +0.017090 -3.902439 +0.792683 +2.073171
6259667 +1.006836 +0.003906 +0.031738 -3.902439 +0.853659 +2.317073
6259669 +1.006836 +0.002930 +0.026855 -3.841464 +0.670732 +1.951220
6259671 +1.007812 -0.000488 +0.023926 -3.841464 +0.792683 +2.073171
6259673 +1.007812 +0.000977 +0.030273 -3.963415 +0.853659 +2.256098
6259675 +1.008301 -0.003906 +0.025879 -3.902439 +1.036585 +2.500000
6259677 +1.007812 -0.005859 +0.027832 -3.902439 +0.975610 +2.134146
6259679 +1.003418 -0.003906 +0.039551 -3.841464 +1.036585 +2.378049
6259682 +1.009277 +0.002441 +0.027832 -3.963415 +0.731707 +2.317073
6259684 +1.010742 -0.001953 +0.030762 -3.902439 +0.853659 +1.890244
6259686 +1.006348 -0.001465 +0.025391 -3.841464 +0.914634 +1.829268
6259688 +1.003906 +0.002441 +0.030762 -3.963415 +0.731707 +2.012195
6259690 +1.008789 -0.002930 +0.033203 -3.719512 +0.853659 +2.134146
6259692 +1.013184 -0.005859 +0.028809 -3.841464 +0.914634 +2.134146
6259694 +1.009277 -0.004883 +0.022461 -3.780488 +0.792683 +2.134146
6259696 +1.004883 +0.003906 +0.032715 -3.841464 +0.975610 +2.195122
6259698 +0.999512 +0.001953 +0.025391 -3.963415 +0.914634 +2.073171
6259700 +1.007812 -0.000488 +0.026367 -3.902439 +0.792683 +2.195122
6259702 +1.010742 +0.000000 +0.034668 -3.780488 +0.853659 +2.256098
6259704 +1.005371 +0.007324 +0.031250 -3.719512 +0.914634 +2.012195
6259706 +1.007324 +0.000977 +0.022461 -3.841464 +0.853659 +2.195122
6259708 +1.009277 +0.001953 +0.032227 -4.024390 +0.853659 +2.012195
6259710 +1.007324 -0.002441 +0.017578 -3.902439 +0.914634 +2.073171
6259712 +1.004395 +0.007812 +0.023926 -3.780488 +0.914634 +2.012195
6259714 +1.008789 -0.000977 +0.022949 -3.902439 +0.975610 +1.890244
6259716 +1.004883 +0.003418 +0.026367 -3.963415 +0.853659 +2.256098
6259718 +1.009277 +0.006348 +0.015137 -3.841464 +0.914634 +2.256098
6259720 +1.014648 +0.003906 +0.024902 -3.841464 +0.914634 +1.951220
6259722 +1.007812 +0.001465 +0.020020 -3.841464 +0.975610 +1.951220
6259724 +1.007812 +0.000977 +0.020020 -3.841464 +0.914634 +2.073171
6259726 +1.009277 +0.001953 +0.022461 -3.841464 +0.853659 +2.378049
6259728 +1.009766 -0.006348 +0.022949 -3.902439 +0.853659 +1.951220
6259730 +1.013672 +0.003906 +0.029297 -3.841464 +0.731707 +2.134146
6259732 +1.007812 -0.000488 +0.029297 -3.841464 +0.853659 +1.951220
6259734 +1.001953 +0.000977 +0.028809 -3.963415 +0.914634 +1.951220
6259736 +1.005859 +0.008301 +0.025879 -3.841464 +0.853659 +2.012195
6259738 +1.005859 -0.005371 +0.029785 -3.902439 +0.853659 +2.195122
6259740 +1.004883 -0.000488 +0.022461 -3.902439 +0.975610 +2.073171
6259742 +1.002441 +0.003418 +0.020508 -3.841464 +0.670732 +2.073171
6259744 +1.006348 -0.004883 +0.025879 -4.085366 +0.792683 +2.195122
6259746 +1.002930 -0.002441 +0.021484 -3.963415 +0.914634 +2.073171
6259748 +1.004883 -0.003906 +0.026855 -3.902439 +0.914634 +2.256098
6259750 +1.010742 +0.002441 +0.032715 -3.963415 +0.853659 +2.134146
6259752 +1.003418 +0.005371 +0.030762 -3.902439 +0.975610 +2.195122
6259754 +1.013672 +0.007812 +0.023926 -3.841464 +0.670732 +2.195122
6259756 +1.004395 +0.003906 +0.023438 -3.902439 +0.731707 +2.195122
6259758 +1.007812 +0.006348 +0.028320 -3.902439 +0.853659 +2.073171
6259760 +1.002930 +0.005371 +0.033203 -4.024390 +0.914634 +2.134146
6259762 +1.007812 +0.000488 +0.021484 -3.841464 +0.853659 +2.134146
6259764 +1.008789 -0.003418 +0.025879 -3.658537 +0.914634 +2.195122
6259766 +1.006836 +0.002930 +0.026367 -4.024390 +0.609756 +2.256098
6259768 +1.009277 +0.001465 +0.029785 -3.963415 +0.914634 +2.195122
6259770 +1.007812 +0.000977 +0.030273 -3.902439 +0.914634 +1.951220
6259772 +1.007812 -0.000488 +0.029297 -3.902439 +0.853659 +2.439024
6259774 +1.004883 +0.000488 +0.027344 -3.963415 +0.914634 +1.951220
6259776 +1.006836 -0.002930 +0.025879 -3.902439 +0.975610 +2.012195
6259778 +1.007812 +0.000000 +0.029785 -3.841464 +1.036585 +2.134146
6259780 +1.010742 -0.000488 +0.022461 -3.902439 +0.975610 +2.073171
6259782 +1.009277 +0.006348 +0.030273 -3.902439 +0.792683 +1.951220
6259784 +1.002930 +0.000000 +0.034668 -3.780488 +0.853659 +2.073171
6259786 +1.006836 +0.001953 +0.027832 -3.902439 +0.914634 +2.195122
6259788 +1.005859 -0.000977 +0.020020 -3.902439 +0.853659 +2.256098
6259790 +1.006348 -0.000977 +0.026367 -3.841464 +0.792683 +2.073171
6259792 +1.010254 -0.002441 +0.028809 -3.719512 +0.975610 +2.073171
6259794 +1.004395 +0.002441 +0.034668 -3.963415 +0.914634 +2.073171
6259796 +1.008301 +0.000488 +0.030273 -4.024390 +0.792683 +1.951220
6259798 +1.000977 -0.003906 +0.025391 -3.902439 +0.731707 +2.195122
6259800 +1.006836 +0.004395 +0.036621 -3.841464 +0.792683 +2.073171
6259802 +1.007324 +0.004395 +0.031250 -4.024390 +0.792683 +2.073171
6259804 +1.008301 +0.000977 +0.021973 -3.963415 +0.731707 +2.073171
6259806 +1.014160 +0.004395 +0.030273 -3.780488 +0.731707 +2.073171
6259808 +1.014648 +0.000488 +0.027832 -3.780488 +0.914634 +2.134146
6259810 +1.007324 +0.000977 +0.028809 -3.780488 +0.792683 +2.012195
6259812 +1.002930 -0.001465 +0.023926 -3.902439 +0.914634 +2.073171
6259814 +1.010254 +0.006348 +0.029785 -3.902439 +0.731707 +2.134146
6259816 +1.002930 +0.004395 +0.016113 -3.902439 +0.914634 +2.073171
6259818 +1.008789 +0.001465 +0.025879 -3.902439 +0.853659 +2.134146
6259820 +1.007812 +0.000977 +0.028809 -3.841464 +0.975610 +2.256098
6259822 +1.005371 -0.000488 +0.024902 -3.963415 +0.792683 +1.951220
6259824 +0.999023 -0.001465 +0.028809 -4.024390 +0.914634 +2.317073
6259826 +1.003906 -0.001465 +0.017090 -3.780488 +0.792683 +2.012195
6259828 +1.006348 +0.001465 +0.024414 -3.841464 +0.792683 +1.951220
6259830 +1.005371 +0.007812 +0.020996 -3.841464 +0.853659 +2.012195
6259832 +1.004395 -0.000488 +0.025879 -3.902439 +0.914634 +2.256098
6259834 +1.009766 +0.004883 +0.024902 -3.719512 +0.853659 +2.073171
6259836 +1.000488 +0.000488 +0.024902 -3.902439 +0.792683 +1.951220
6259838 +1.006348 +0.000488 +0.021973 -3.963415 +0.731707 +2.134146
6259840 +1.004883 +0.000488 +0.025391 -3.841464 +0.792683 +2.256098
6259842 +1.008789 +0.001465 +0.036133 -3.902439 +0.914634 +2.073171
6259844 +1.010742 +0.000000 +0.030762 -4.024390 +0.853659 +2.012195
6259846 +1.006348 -0.002930 +0.032715 -3.902439 +0.731707 +2.073171
6259848 +1.014160 +0.000977 +0.028809 -3.780488 +0.975610 +1.951220
6259850 +1.006836 -0.000488 +0.027344 -3.841464 +0.914634 +2.195122
6259852 +1.007324 -0.004395 +0.028320 -3.902439 +0.914634 +2.317073
6259854 +1.006348 +0.001465 +0.032227 -3.963415 +0.792683 +2.073171
6259856 +1.006836 -0.006348 +0.027344 -3.719512 +0.975610 +2.195122
6259858 +1.001465 -0.001953 +0.029785 -3.719512 +0.609756 +1.890244
6259860 +1.009766 +0.002441 +0.034668 -3.841464 +0.914634 +1.951220
6259862 +1.009277 +0.003906 +0.028320 -3.780488 +0.914634 +2.195122
6259864 +1.004883 -0.003906 +0.020020 -3.902439 +0.731707 +2.195122
6259866 +1.010254 +0.002930 +0.029297 -3.963415 +1.097561 +2.073171
6259868 +1.009766 -0.003906 +0.033203 -3.902439 +0.731707 +2.195122
6259870 +1.013672 -0.002930 +0.020996 -4.024390 +0.914634 +2.073171
6259872 +1.003906 +0.002441 +0.029785 -3.963415 +0.914634 +2.012195
6259874 +1.005859 -0.002441 +0.031738 -3.780488 +0.914634 +2.073171
6259876 +1.001953 -0.005371 +0.024902 -3.719512 +0.975610 +2.073171
6259878 +1.005859 -0.002441 +0.020996 -3.780488 +1.036585 +2.012195
6259880 +1.013184 -0.001465 +0.021973 -3.902439 +0.853659 +2.134146
6259882 +0.998047 +0.004395 +0.028809 -3.841464 +0.914634 +2.134146
6259884 +1.007324 -0.003418 +0.029785 -3.780488 +0.975610 +2.073171
6259886 +1.008301 -0.002930 +0.028809 -3.780488 +0.792683 +2.134146
6259888 +1.008301 +0.000977 +0.032715 -3.658537 +0.914634 +1.890244
6259890 +1.006348 -0.003418 +0.024902 -3.780488 +0.914634 +2.134146
6259892 +1.004395 +0.004883 +0.021484 -3.841464 +0.914634 +2.073171
6259894 +1.004883 +0.002930 +0.020020 -3.658537 +0.731707 +2.073171
6259896 +1.006836 -0.001953 +0.026855 -3.963415 +0.914634 +2.195122
6259898 +1.003418 +0.000000 +0.029785 -3.658537 +0.853659 +2.317073
6259900 +1.004883 +0.003906 +0.022949 -3.841464 +0.731707 +2.378049
6259903 +1.005371 +0.003418 +0.030762 -3.841464 +0.670732 +2.195122
6259905 +1.002441 +0.002441 +0.028809 -3.780488 +0.853659 +2.012195
6259907 +1.008789 +0.003906 +0.029297 -3.719512 +0.975610 +2.195122
6259909 +1.005371 +0.004395 +0.019043 -3.902439 +0.914634 +2.073171
6259911 +1.008789 +0.007324 +0.017578 -3.841464 +0.731707 +2.195122
6259913 +1.003418 -0.000488 +0.025879 -3.719512 +0.609756 +2.195122
6259915 +1.006348 +0.003906 +0.017578 -3.963415 +0.914634 +2.012195
6259917 +1.009277 +0.000488 +0.022949 -3.902439 +0.914634 +2.134146
6259919 +1.009766 +0.005371 +0.021973 -3.719512 +0.914634 +2.012195
6259921 +1.005371 -0.003906 +0.022461 -3.902439 +0.731707 +2.073171
6259923 +1.014648 +0.006348 +0.030762 -3.902439 +0.914634 +2.134146
6259925 +1.007812 +0.003418 +0.021484 -3.963415 +0.670732 +2.012195
6259927 +1.012695 +0.006836 +0.030762 -3.902439 +0.792683 +2.073171
6259929 +1.005859 +0.002441 +0.021484 -3.780488 +0.914634 +2.073171
6259931 +1.010742 +0.003418 +0.025391 -3.841464 +0.914634 +2.134146
6259933 +1.007812 +0.004395 +0.026367 -3.780488 +0.853659 +2.073171
6259935 +1.000977 -0.000977 +0.020996 -3.841464 +0.914634 +2.134146
6259937 +1.006348 +0.001465 +0.022461 -3.719512 +0.731707 +2.317073
6259939 +1.005371 -0.000977 +0.026855 -3.841464 +0.792683 +2.073171
6259941 +1.003418 +0.005859 +0.024902 -3.841464 +0.975610 +1.951220
6259943 +1.006836 +0.006836 +0.023438 -3.841464 +0.731707 +2.378049
6259945 +1.000977 -0.002441 +0.020508 -3.902439 +0.853659 +2.317073
6259947 +1.012695 +0.002441 +0.027344 -3.841464 +0.914634 +2.195122
6259949 +1.003906 -0.001953 +0.026367 -3.902439 +1.036585 +2.134146
6259951 +1.012207 -0.000488 +0.026855 -3.719512 +0.975610 +2.012195
6259953 +1.006348 -0.001953 +0.024902 -3.841464 +0.853659 +2.195122
6259955 +1.006836 +0.003418 +0.031250 -3.902439 +0.914634 +2.073171
6259957 +0.998047 -0.001953 +0.030273 -3.902439 +0.914634 +1.768293
6259959 +1.008301 -0.000977 +0.013672 -3.841464 +0.731707 +2.073171
6259961 +1.004883 -0.003418 +0.028320 -3.902439 +0.853659 +2.439024
6259963 +1.008789 -0.002441 +0.017578 -3.780488 +0.914634 +1.951220
6259965 +1.010742 -0.000488 +0.019043 -3.841464 +0.853659 +2.195122
6259967 +1.005371 +0.001465 +0.024414 -3.780488 +0.792683 +2.195122
6259969 +1.006836 -0.002441 +0.028320 -3.780488 +0.792683 +2.073171
