time accel_x accel_y accel_z gyro_x gyro_y gyro_z
8369551 +1.009766 -0.008301 +0.021484 -3.780488 +0.914634 +2.073171
8369553 +1.012695 -0.010254 +0.028809 -3.658537 +1.036585 +2.195122
8369555 +1.006348 -0.008789 +0.033203 -3.841464 +0.853659 +2.073171
8369557 +1.011719 -0.008789 +0.014648 -3.841464 +0.792683 +2.073171
8369559 +1.000488 -0.005371 +0.030762 -3.841464 +0.914634 +2.073171
8369561 +1.000977 -0.004883 +0.028320 -3.719512 +0.853659 +2.256098
8369563 +1.009277 -0.005859 +0.040527 -3.963415 +0.792683 +2.012195
8369565 +1.001465 -0.004395 +0.027344 -3.841464 +0.853659 +2.073171
8369567 +1.006348 -0.006348 +0.028809 -3.902439 +0.792683 +2.073171
8369569 +1.003418 -0.005859 +0.024902 -3.841464 +0.853659 +2.073171
8369571 +1.009766 -0.006836 +0.020996 -3.780488 +1.097561 +2.073171
8369573 +1.008301 -0.006836 +0.024414 -3.841464 +0.975610 +2.073171
8369575 +1.005859 -0.009277 +0.029297 -3.902439 +0.731707 +2.012195
8369577 +1.010742 -0.004883 +0.033203 -3.902439 +0.975610 +2.134146
8369579 +1.007812 -0.008301 +0.029785 -3.841464 +0.914634 +2.073171
8369581 +0.999023 -0.002441 +0.022949 -3.902439 +0.853659 +2.195122
8369583 +1.009277 -0.005371 +0.028320 -3.841464 +0.792683 +2.073171
8369585 +1.011230 -0.010742 +0.025391 -3.719512 +0.853659 +2.378049
8369587 +1.011230 -0.010254 +0.032715 -3.841464 +0.975610 +2.195122
8369589 +1.004883 -0.008301 +0.025391 -3.841464 +1.097561 +1.951220
8369591 +1.005859 -0.011719 +0.029785 -3.780488 +0.853659 +2.073171
8369594 +1.007324 -0.008789 +0.034180 -3.780488 +0.853659 +2.195122
8369596 +1.004883 -0.007812 +0.026855 -3.841464 +0.914634 +2.073171
8369598 +1.009277 -0.005859 +0.029297 -3.719512 +0.853659 +2.256098
8369600 +1.003906 -0.005371 +0.032227 -3.780488 +0.853659 +1.951220
8369602 +1.007324 -0.005371 +0.025879 -4.024390 +0.731707 +2.134146
8369604 +1.002441 -0.008789 +0.027832 -3.719512 +1.036585 +2.256098
8369606 +1.007324 -0.004395 +0.025879 -3.719512 +0.853659 +1.951220
8369608 +1.009766 -0.005371 +0.018555 -3.780488 +0.914634 +2.073171
8369610 +1.005859 -0.003418 +0.029297 -3.963415 +0.914634 +2.073171
8369612 +1.009766 -0.006348 +0.026367 -3.841464 +0.914634 +2.073171
8369614 +1.004883 -0.004883 +0.033691 -3.780488 +0.914634 +2.012195
8369616 +1.006348 -0.007812 +0.023926 -3.902439 +0.975610 +2.134146
8369618 +1.006348 -0.016602 +0.035156 -3.902439 +0.853659 +2.256098
8369620 +1.008301 -0.006348 +0.024414 -3.902439 +0.914634 +2.012195
8369622 +1.009277 -0.005859 +0.022461 -3.841464 +0.792683 +2.134146
8369624 +1.004395 -0.006348 +0.039551 -3.963415 +0.792683 +2.134146
8369626 +1.008301 -0.006836 +0.031250 -3.780488 +0.975610 +2.134146
8369628 +1.007812 -0.006348 +0.026367 -3.658537 +0.975610 +2.134146
8369630 +1.005859 -0.005859 +0.033203 -3.841464 +0.792683 +2.317073
8369632 +1.002441 -0.007812 +0.027344 -3.780488 +0.914634 +2.195122
8369634 +1.005859 -0.004883 +0.029785 -3.780488 +0.914634 +1.829268
8369636 +1.008301 +0.000000 +0.026367 -3.719512 +0.914634 +2.195122
8369638 +1.008789 -0.011230 +0.030762 -3.780488 +0.914634 +2.134146
8369640 +1.005859 -0.007324 +0.031250 -3.780488 +0.792683 +2.134146
8369642 +1.006836 -0.012207 +0.029297 -3.719512 +0.670732 +2.134146
8369644 +1.003906 -0.007812 +0.029297 -3.780488 +1.097561 +2.012195
8369646 +1.008301 -0.008789 +0.032715 -3.780488 +0.853659 +2.012195
8369648 +1.007812 -0.007324 +0.036621 -3.780488 +0.975610 +2.134146
8369650 +1.009766 -0.000977 +0.026855 -3.902439 +0.853659 +2.134146
8369652 +1.003418 -0.001953 +0.028809 -3.841464 +0.914634 +2.073171
8369654 +1.007812 -0.008301 +0.033691 -3.902439 +0.914634 +2.134146
8369656 +1.004395 +0.000488 +0.031738 -3.902439 +0.731707 +2.134146
8369658 +1.006348 -0.004395 +0.023926 -3.902439 +0.853659 +2.134146
8369660 +1.004883 +0.000000 +0.026367 -3.658537 +0.853659 +2.256098
8369662 +1.004395 -0.013184 +0.030273 -3.780488 +0.975610 +2.195122
8369664 +1.001953 -0.010742 +0.036621 -3.780488 +0.792683 +2.134146
8369666 +1.003418 -0.007812 +0.026855 -3.780488 +0.975610 +2.256098
8369668 +1.012695 -0.009277 +0.024902 -3.841464 +0.853659 +1.951220
8369670 +1.006836 -0.004883 +0.027344 -3.719512 +0.853659 +2.134146
8369672 +1.008789 -0.005859 +0.026855 -3.841464 +0.914634 +2.073171
8369674 +1.009277 -0.000488 +0.031738 -3.902439 +0.914634 +2.195122
8369676 +1.005371 -0.006836 +0.020020 -3.780488 +0.914634 +2.012195
8369678 +1.003906 -0.002441 +0.034180 -3.719512 +0.670732 +2.195122
8369680 +1.010254 -0.003906 +0.035645 -3.780488 +0.853659 +2.195122
8369682 +1.002930 -0.000488 +0.029297 -3.719512 +0.914634 +2.256098
8369684 +1.004395 -0.005371 +0.039551 -3.658537 +0.853659 +1.890244
8369686 +1.005371 -0.004395 +0.024902 -3.841464 +0.853659 +2.256098
8369688 +1.006348 -0.009277 +0.025391 -3.841464 +0.975610 +2.134146
8369690 +1.007324 -0.008301 +0.028320 -3.780488 +0.914634 +2.134146
8369692 +1.007812 -0.007812 +0.033203 -3.719512 +0.853659 +2.134146
8369694 +1.004883 -0.008301 +0.032715 -3.780488 +0.853659 +2.012195
8369696 +1.008301 -0.008301 +0.032227 -3.841464 +1.036585 +2.012195
8369698 +1.004883 -0.003418 +0.031250 -3.841464 +0.792683 +2.195122
8369700 +1.005859 -0.002441 +0.030762 -3.902439 +0.914634 +2.012195
8369702 +1.003418 -0.011230 +0.025879 -3.597561 +0.853659 +2.195122
8369704 +1.012207 -0.005859 +0.029785 -3.841464 +0.731707 +2.134146
8369706 +1.014648 -0.009766 +0.023438 -3.780488 +0.975610 +1.829268
8369708 +1.007324 -0.005859 +0.027832 -3.902439 +0.914634 +2.195122
8369710 +1.007324 -0.004883 +0.034180 -3.841464 +0.853659 +2.256098
8369712 +1.005371 -0.004395 +0.026855 -3.780488 +0.731707 +2.256098
8369714 +1.011230 -0.007812 +0.033691 -3.841464 +1.036585 +2.195122
8369716 +1.004883 -0.007812 +0.032227 -3.780488 +1.097561 +2.134146
8369718 +1.007324 -0.010742 +0.030762 -3.963415 +0.670732 +2.012195
8369720 +1.001953 -0.007324 +0.031738 -3.780488 +0.731707 +1.890244
8369722 +0.998535 -0.005859 +0.033691 -3.841464 +1.158537 +2.195122
8369724 +1.009766 -0.004883 +0.025391 -3.780488 +0.731707 +2.012195
8369726 +1.007324 -0.006348 +0.034180 -3.719512 +0.609756 +1.951220
8369728 +1.004395 -0.002930 +0.029297 -3.902439 +1.036585 +2.073171
8369730 +1.010742 -0.010254 +0.034668 -3.902439 +0.975610 +2.012195
8369732 +1.006348 -0.008789 +0.024902 -3.841464 +0.792683 +2.073171
8369734 +1.008789 -0.007324 +0.028320 -3.841464 +0.914634 +2.378049
8369736 +1.010254 -0.014160 +0.032227 -3.780488 +0.914634 +2.073171
8369738 +1.009766 -0.004883 +0.017090 -3.841464 +0.853659 +2.134146
8369740 +1.004883 -0.005371 +0.024902 -3.841464 +0.975610 +2.073171
8369742 +1.010742 -0.005371 +0.035645 -3.719512 +0.792683 +2.195122
8369744 +1.002930 -0.004883 +0.024902 -3.719512 +0.853659 +2.012195
8369746 +1.003906 -0.007812 +0.032715 -3.902439 +1.036585 +2.012195
8369748 +1.002441 -0.007812 +0.026367 -3.780488 +0.853659 +2.317073
8369750 +1.002441 -0.001465 +0.031250 -3.841464 +0.853659 +2.195122
8369752 +1.007812 -0.006348 +0.033203 -3.841464 +1.036585 +2.195122
8369754 +1.011719 -0.009766 +0.026855 -3.841464 +0.975610 +2.073171
8369756 +1.004883 -0.004883 +0.026367 -3.841464 +0.853659 +1.768293
8369758 +1.010254 +0.001465 +0.037598 -3.841464 +0.853659 +2.256098
8369760 +1.010254 -0.007324 +0.030762 -3.902439 +0.914634 +2.073171
8369762 +1.005859 -0.005371 +0.020020 -3.658537 +0.914634 +2.134146
8369764 +1.006836 -0.008301 +0.028320 -3.658537 +0.792683 +2.256098
8369766 +1.004883 -0.009277 +0.028320 -3.658537 +0.792683 +2.256098
8369768 +1.004395 -0.001465 +0.032715 -3.719512 +1.097561 +2.073171
8369770 +0.998535 -0.005859 +0.026855 -3.841464 +0.853659 +2.195122
8369772 +1.008789 -0.008789 +0.031738 -3.719512 +0.853659 +2.073171
8369774 +1.011719 -0.007812 +0.033691 -3.841464 +0.914634 +1.890244
8369776 +1.008789 -0.003418 +0.039551 -4.024390 +0.853659 +2.256098
8369778 +1.003418 -0.007324 +0.032715 -3.780488 +0.853659 +2.073171
8369780 +1.011719 -0.006348 +0.043945 -3.719512 +0.853659 +2.195122
8369782 +0.998047 -0.002441 +0.032227 -4.024390 +1.036585 +2.073171
8369784 +0.999023 -0.003906 +0.030273 -3.841464 +0.853659 +1.829268
8369786 +1.009766 -0.010742 +0.019043 -3.780488 +0.792683 +2.134146
8369788 +1.007324 -0.005859 +0.021973 -3.780488 +0.853659 +2.134146
8369790 +1.003418 -0.006348 +0.035645 -3.780488 +0.975610 +2.134146
8369792 +1.010254 -0.010254 +0.037598 -3.780488 +0.914634 +2.378049
8369794 +1.004883 -0.003906 +0.027344 -3.780488 +0.792683 +2.073171
8369796 +1.004883 -0.007324 +0.020020 -3.780488 +0.792683 +1.951220
8369798 +1.012207 -0.008789 +0.027344 -3.841464 +0.731707 +2.073171
8369800 +1.004883 -0.002441 +0.030273 -3.780488 +0.853659 +2.195122
8369802 +1.006348 -0.001465 +0.026855 -3.841464 +0.914634 +2.012195
8369804 +1.007812 -0.009766 +0.026855 -3.780488 +0.731707 +2.012195
8369806 +1.008301 -0.010742 +0.034180 -3.841464 +0.792683 +2.012195
8369808 +1.000000 -0.005859 +0.026855 -3.841464 +0.853659 +2.195122
8369810 +1.013184 -0.004883 +0.034668 -3.780488 +0.853659 +1.951220
8369812 +1.003418 -0.003906 +0.023926 -3.841464 +0.853659 +1.951220
8369814 +1.004395 -0.004883 +0.033203 -3.597561 +0.792683 +2.195122
8369817 +1.008301 -0.006348 +0.035645 -3.658537 +0.853659 +2.073171
8369819 +1.006348 -0.007812 +0.024414 -3.719512 +0.853659 +2.195122
8369821 +1.009277 -0.005371 +0.022461 -3.902439 +0.853659 +2.012195
8369823 +1.008301 -0.006836 +0.031250 -3.841464 +0.914634 +2.195122
8369825 +1.003418 -0.005371 +0.023438 -3.841464 +0.853659 +2.256098
8369827 +0.998535 -0.003906 +0.035645 -3.841464 +0.792683 +2.073171
8369829 +1.007324 -0.005859 +0.026855 -3.841464 +0.914634 +2.195122
8369831 +1.007324 -0.007812 +0.030762 -3.780488 +0.853659 +2.134146
8369833 +1.004883 -0.004883 +0.029785 -3.902439 +1.036585 +2.195122
8369835 +1.009277 -0.004395 +0.027832 -3.902439 +0.853659 +2.195122
8369837 +1.007812 -0.002930 +0.027344 -3.719512 +0.914634 +1.951220
8369839 +1.007812 -0.007812 +0.028809 -3.780488 +0.914634 +2.256098
8369841 +1.014648 -0.011719 +0.028320 -3.902439 +0.853659 +2.134146
8369843 +1.007812 -0.008301 +0.018066 -3.902439 +0.731707 +2.012195
8369845 +1.004395 -0.003906 +0.026855 -3.841464 +0.853659 +2.256098
8369847 +1.012695 -0.005859 +0.037598 -3.719512 +0.975610 +2.073171
8369849 +1.002441 -0.004883 +0.041504 -3.780488 +1.036585 +2.134146
8369851 +1.004883 -0.014160 +0.031738 -3.841464 +0.914634 +2.134146
8369853 +1.003906 -0.009766 +0.021484 -3.902439 +0.792683 +2.256098
8369855 +1.006348 -0.012695 +0.026855 -3.963415 +0.914634 +1.890244
8369857 +1.005859 -0.006348 +0.026367 -3.780488 +1.097561 +2.073171
8369859 +1.005371 -0.006836 +0.034180 -3.902439 +0.914634 +1.951220
8369861 +1.010742 +0.000000 +0.033691 -3.841464 +0.914634 +2.256098
8369863 +1.002930 -0.009766 +0.027832 -3.963415 +0.731707 +1.829268
8369865 +1.003906 -0.004883 +0.030762 -3.841464 +0.853659 +2.134146
8369867 +1.007324 -0.007812 +0.037109 -3.902439 +0.853659 +1.951220
8369869 +1.007812 -0.013184 +0.032227 -3.841464 +0.975610 +2.134146
8369871 +1.010742 -0.009766 +0.028809 -3.902439 +0.914634 +2.256098
8369873 +1.009766 -0.007324 +0.035645 -3.841464 +0.731707 +2.134146
8369875 +1.009766 -0.009277 +0.033203 -3.841464 +0.731707 +2.012195
8369877 +1.002441 -0.005371 +0.025391 -3.902439 +0.975610 +2.012195
8369879 +1.007812 -0.008301 +0.028809 -3.841464 +0.914634 +2.317073
8369881 +1.006348 -0.011230 +0.034180 -3.963415 +0.853659 +2.073171
8369883 +1.006348 -0.007324 +0.030762 -3.902439 +0.792683 +1.951220
8369885 +1.007324 -0.005859 +0.031738 -3.780488 +0.853659 +2.073171
8369887 +1.009766 -0.003906 +0.026855 -3.719512 +0.853659 +2.012195
8369889 +1.010254 -0.008301 +0.032227 -3.902439 +0.853659 +2.134146
8369891 +1.008789 -0.006348 +0.034668 -3.719512 +0.914634 +2.012195
8369893 +1.012695 -0.005859 +0.021484 -3.902439 +0.792683 +2.256098
8369895 +1.006348 -0.009766 +0.024902 -3.780488 +0.914634 +1.829268
8369897 +1.001953 -0.009766 +0.023926 -3.963415 +0.731707 +2.134146
8369899 +1.007812 -0.007812 +0.032715 -3.780488 +0.731707 +2.195122
8369901 +1.006348 -0.000488 +0.028809 -3.719512 +0.975610 +2.073171
8369903 +1.009766 -0.004883 +0.024414 -3.780488 +0.975610 +2.073171
8369905 +1.009277 -0.010254 +0.022949 -3.780488 +0.914634 +1.951220
8369907 +1.008789 -0.009277 +0.029297 -3.780488 +0.853659 +1.890244
8369909 +1.005371 -0.005371 +0.034668 -3.780488 +1.036585 +2.073171
8369911 +1.000488 -0.004883 +0.030273 -3.902439 +0.792683 +2.012195
8369913 +1.003418 -0.007812 +0.037109 -3.963415 +0.792683 +2.073171
8369915 +1.008301 -0.005859 +0.033203 -3.780488 +0.609756 +2.134146
8369917 +1.016113 -0.005371 +0.032227 -3.841464 +0.731707 +2.195122
8369919 +1.008301 -0.008301 +0.031738 -3.841464 +0.975610 +2.012195
8369921 +1.004395 -0.005859 +0.024902 -3.841464 +0.792683 +2.012195
8369923 +1.009277 -0.007812 +0.026367 -3.841464 +0.853659 +2.073171
8369925 +1.011719 -0.007324 +0.029297 -3.841464 +1.036585 +2.195122
8369927 +1.007324 -0.006836 +0.027832 -3.719512 +0.975610 +2.134146
8369929 +1.006836 -0.003906 +0.031250 -3.963415 +0.853659 +2.134146
8369931 +1.013184 -0.004395 +0.030273 -3.841464 +0.792683 +2.195122
8369933 +1.009766 -0.009277 +0.030762 -3.780488 +0.792683 +1.951220
8369935 +1.007812 -0.001953 +0.028809 -3.902439 +0.914634 +2.073171
8369937 +1.004883 -0.006836 +0.023438 -3.902439 +0.914634 +2.317073
8369939 +1.007324 -0.001465 +0.027344 -3.963415 +0.731707 +2.195122
8369941 +1.006836 -0.008301 +0.021484 -3.902439 +0.792683 +2.073171
8369943 +1.004883 -0.004395 +0.020996 -3.902439 +0.853659 +2.012195
8369945 +1.003418 -0.006836 +0.019531 -3.902439 +0.792683 +2.195122
8369947 +1.006836 -0.005371 +0.030273 -3.841464 +1.036585 +2.073171
8369949 +1.006348 -0.009277 +0.025391 -3.841464 +0.914634 +2.134146
8369951 +1.002441 -0.007812 +0.027832 -3.841464 +0.792683 +2.195122
8369953 +1.009277 -0.005859 +0.031250 -3.902439 +1.036585 +2.012195
8369955 +1.006348 -0.010254 +0.030762 -3.780488 +0.914634 +2.012195
8369957 +1.007812 -0.010254 +0.032227 -3.841464 +0.792683 +2.378049
8369959 +1.005859 -0.006836 +0.027344 -3.902439 +0.792683 +2.256098
8369961 +1.003418 -0.004883 +0.030762 -3.780488 +0.914634 +2.073171
8369963 +1.010742 -0.008789 +0.025391 -3.658537 +0.975610 +1.829268
8369965 +1.008789 -0.009766 +0.023438 -3.841464 +0.914634 +1.951220
8369967 +1.005371 -0.007324 +0.023926 -3.841464 +0.670732 +2.012195
8369969 +1.008789 -0.005859 +0.023438 -3.658537 +0.914634 +2.195122
8369971 +1.010254 -0.003906 +0.020508 -4.024390 +0.914634 +1.890244
8369973 +1.003906 -0.005371 +0.023438 -3.780488 +0.914634 +2.195122
8369975 +1.000000 -0.008789 +0.023926 -3.780488 +0.975610 +2.073171
8369977 +1.000488 -0.005859 +0.024414 -3.780488 +0.853659 +2.073171
8369979 +1.012207 -0.004883 +0.031250 -3.658537 +0.670732 +2.195122
8369981 +1.002930 -0.004395 +0.025391 -3.780488 +0.975610 +2.256098
8369983 +1.007812 -0.004883 +0.032715 -3.719512 +0.914634 +1.890244
8369985 +1.008789 -0.009277 +0.031738 -3.780488 +0.853659 +2.134146
8369987 +1.005371 +0.000977 +0.023438 -3.780488 +0.853659 +2.012195
8369989 +1.009277 -0.005371 +0.036133 -3.841464 +0.792683 +2.012195
8369991 +1.004395 -0.000488 +0.031738 -3.658537 +0.914634 +2.134146
8369993 +1.003906 -0.012695 +0.038574 -3.841464 +0.975610 +2.134146
8369995 +1.009277 -0.002930 +0.027344 -4.024390 +0.792683 +2.012195
8369997 +1.003418 -0.000977 +0.031738 -3.902439 +0.914634 +2.012195
8369999 +1.007812 -0.007812 +0.030762 -3.841464 +0.975610 +2.134146
8370001 +1.004395 -0.007812 +0.029785 -3.841464 +0.731707 +2.073171
8370003 +1.009766 -0.003906 +0.027832 -3.658537 +1.158537 +2.134146
8370005 +1.010254 -0.008789 +0.023438 -3.841464 +0.792683 +2.195122
8370007 +1.001465 -0.003418 +0.043457 -3.902439 +0.853659 +2.073171
8370009 +1.012207 -0.013672 +0.029785 -3.719512 +0.731707 +2.378049
8370011 +1.010742 -0.014648 +0.037598 -3.841464 +0.853659 +1.951220
8370013 +1.003418 -0.005859 +0.025879 -3.780488 +0.975610 +2.134146
8370015 +1.003418 -0.005859 +0.030762 -3.780488 +0.914634 +1.951220
8370017 +1.009766 -0.007812 +0.037598 -3.902439 +0.914634 +2.012195
8370019 +1.006836 -0.007324 +0.023926 -3.902439 +0.975610 +2.073171
8370021 +1.007812 -0.005859 +0.027344 -3.780488 +0.853659 +2.195122
8370023 +1.000000 -0.009277 +0.031250 -3.719512 +0.914634 +2.256098
8370025 +1.010742 -0.003418 +0.033203 -3.780488 +0.792683 +2.073171
8370027 +1.003906 -0.005371 +0.025879 -3.963415 +0.853659 +2.012195
8370029 +1.007812 -0.006836 +0.024414 -3.841464 +0.731707 +2.012195
8370031 +1.004883 -0.004883 +0.022461 -3.780488 +0.914634 +2.195122
8370033 +1.005859 -0.003906 +0.020996 -3.902439 +0.853659 +2.195122
8370035 +1.002930 -0.011230 +0.036133 -3.719512 +0.914634 +2.073171
8370038 +1.000488 -0.005859 +0.027832 -3.902439 +0.792683 +1.890244
8370040 +1.009766 -0.008301 +0.040527 -3.780488 +0.914634 +2.134146
8370042 +1.009277 -0.009277 +0.029785 -3.841464 +0.914634 +1.829268
8370044 +1.004883 -0.003418 +0.036621 -3.719512 +0.853659 +2.073171
8370046 +1.010254 -0.007324 +0.027832 -3.841464 +1.036585 +2.073171
8370048 +1.013672 -0.007324 +0.026855 -3.841464 +0.975610 +2.317073
8370050 +1.009277 -0.003906 +0.033691 -3.780488 +0.853659 +2.012195
8370052 +1.007324 -0.007812 +0.024414 -3.963415 +0.731707 +2.134146
8370054 +1.008301 -0.009277 +0.026367 -3.780488 +0.853659 +1.951220
8370056 +1.009766 -0.008789 +0.033203 -3.780488 +0.853659 +2.134146
8370058 +1.011719 -0.008789 +0.029297 -3.902439 +0.975610 +2.134146
8370060 +1.007812 -0.009277 +0.032227 -3.841464 +0.914634 +2.012195
8370062 +1.013184 -0.009277 +0.031250 -3.658537 +0.792683 +1.951220
8370064 +1.008789 -0.008301 +0.027832 -3.902439 +0.853659 +2.134146
8370066 +1.007324 -0.010742 +0.030762 -3.780488 +0.914634 +2.012195
8370068 +1.003906 -0.008789 +0.031250 -3.841464 +0.914634 +2.012195
8370070 +1.005859 -0.010742 +0.036133 -3.780488 +0.975610 +2.012195
8370072 +1.001465 -0.006348 +0.026367 -3.780488 +0.914634 +2.073171
8370074 +1.005859 -0.004395 +0.033203 -3.719512 +0.975610 +2.256098
8370076 +1.018066 -0.005859 +0.028809 -3.780488 +0.975610 +2.073171
8370078 +1.013184 +0.000977 +0.034180 -3.841464 +0.609756 +2.073171
8370080 +1.012695 -0.013672 +0.033691 -3.841464 +0.853659 +2.134146
8370082 +1.003906 -0.005371 +0.028809 -3.841464 +0.853659 +2.134146
8370084 +1.003418 -0.006836 +0.032227 -3.719512 +0.914634 +2.256098
8370086 +1.001465 -0.005859 +0.028809 -3.780488 +0.975610 +2.073171
8370088 +1.007812 -0.001953 +0.030762 -3.658537 +0.975610 +1.768293
8370090 +1.005371 -0.006348 +0.027344 -3.841464 +0.914634 +2.073171
8370092 +1.011719 -0.004883 +0.029297 -3.841464 +0.792683 +2.134146
8370094 +1.002441 -0.005371 +0.025879 -3.902439 +0.731707 +2.378049
8370096 +1.006348 -0.001465 +0.030762 -3.902439 +0.853659 +2.195122
8370098 +1.005859 -0.005859 +0.028809 -3.780488 +0.792683 +2.195122
8370100 +1.008789 -0.007812 +0.032227 -3.780488 +0.975610 +2.134146
8370102 +1.009766 -0.009766 +0.030273 -3.780488 +0.975610 +2.195122
8370104 +1.008789 -0.001465 +0.032715 -3.841464 +1.036585 +2.134146
8370106 +1.008789 -0.004883 +0.029785 -3.841464 +0.853659 +1.951220
8370108 +1.010742 -0.003906 +0.030762 -3.902439 +0.792683 +2.012195
8370110 +1.009277 -0.008789 +0.042480 -3.841464 +0.670732 +2.317073
8370112 +1.008789 -0.003906 +0.027344 -3.963415 +1.036585 +2.073171
8370114 +1.007324 -0.006836 +0.024902 -3.841464 +0.792683 +2.134146
8370116 +1.007324 -0.003906 +0.032715 -3.963415 +0.914634 +2.073171
8370118 +1.007812 -0.005371 +0.024902 -3.719512 +0.792683 +2.134146
8370120 +1.010254 -0.006836 +0.033203 -3.841464 +0.975610 +2.317073
8370122 +1.003906 -0.001465 +0.020508 -3.841464 +0.792683 +2.073171
8370124 +1.008789 -0.005371 +0.024414 -3.780488 +0.731707 +2.256098
8370126 +1.002441 -0.005371 +0.026855 -3.841464 +0.975610 +2.073171
8370128 +1.004395 -0.007324 +0.036133 -3.902439 +0.853659 +2.195122
8370130 +1.005859 -0.006836 +0.026855 -3.902439 +0.792683 +2.012195
8370132 +1.009277 -0.008301 +0.024414 -3.658537 +0.914634 +2.012195
8370134 +1.012207 -0.009766 +0.029785 -3.963415 +0.914634 +2.317073
8370136 +1.009277 -0.008789 +0.028809 -3.963415 +0.853659 +2.256098
8370138 +1.008789 -0.005371 +0.028809 -3.902439 +1.036585 +2.134146
8370140 +1.006836 -0.011230 +0.027832 -3.841464 +0.731707 +2.012195
8370142 +1.005859 -0.005371 +0.022461 -3.963415 +0.792683 +2.073171
8370144 +1.008301 -0.005371 +0.037598 -3.841464 +0.975610 +1.951220
8370146 +1.013672 -0.007324 +0.027832 -3.780488 +0.975610 +2.134146
8370148 +1.004395 -0.003906 +0.036621 -3.841464 +0.853659 +2.378049
8370150 +1.005859 -0.008301 +0.031250 -3.780488 +0.792683 +2.134146
8370152 +1.003418 -0.007812 +0.025879 -3.841464 +0.853659 +2.012195
8370154 +1.012695 -0.011719 +0.028809 -3.902439 +0.792683 +2.012195
8370156 +1.007812 -0.011230 +0.030273 -3.902439 +0.792683 +2.012195
8370158 +1.011230 -0.005371 +0.022461 -3.780488 +0.975610 +1.890244
8370160 +1.005371 -0.008789 +0.029785 -3.780488 +0.731707 +2.256098
8370162 +1.003418 -0.003418 +0.030762 -3.841464 +0.853659 +2.195122
8370164 +1.010254 -0.011230 +0.039062 -3.719512 +0.914634 +1.951220
8370166 +1.000488 -0.005371 +0.029785 -3.841464 +0.853659 +2.134146
8370168 +1.007812 -0.002441 +0.034668 -4.024390 +1.036585 +2.256098
8370170 +1.002930 -0.005859 +0.032227 -3.719512 +0.975610 +2.195122
8370172 +1.009766 -0.007812 +0.032715 -4.024390 +0.914634 +2.134146
8370174 +1.006836 -0.010254 +0.033691 -3.780488 +0.853659 +2.073171
8370176 +1.004883 -0.006348 +0.032715 -3.841464 +0.975610 +2.256098
8370178 +1.006348 -0.010254 +0.039062 -3.963415 +0.853659 +2.073171
8370180 +1.002930 -0.004395 +0.027344 -3.780488 +0.975610 +2.073171
8370182 +1.006836 -0.004883 +0.027832 -3.658537 +0.853659 +2.134146
8370184 +1.010742 -0.005371 +0.024414 -3.658537 +0.914634 +1.890244
8370186 +1.006348 -0.002930 +0.035645 -3.841464 +0.853659 +1.951220
8370188 +1.010742 +0.000000 +0.035645 -3.902439 +0.731707 +2.195122
8370190 +1.007812 -0.003418 +0.033691 -3.780488 +1.036585 +1.951220
8370192 +1.006348 -0.007324 +0.030273 -3.780488 +0.792683 +2.195122
8370194 +1.000000 -0.007324 +0.027344 -3.658537 +0.975610 +2.073171
8370196 +1.005859 -0.001465 +0.024902 -3.719512 +0.853659 +2.073171
8370198 +1.009766 -0.005859 +0.036621 -3.902439 +1.036585 +1.890244
8370200 +1.005859 -0.004395 +0.035645 -3.780488 +0.792683 +2.012195
8370202 +1.004883 -0.008301 +0.031738 -3.780488 +0.975610 +2.195122
8370204 +1.006836 -0.005371 +0.033203 -3.780488 +0.914634 +2.073171
8370206 +1.011719 -0.006348 +0.034180 -3.719512 +0.853659 +2.012195
8370208 +1.001465 -0.009277 +0.027344 -3.780488 +0.914634 +2.073171
8370210 +1.008301 -0.002930 +0.029297 -3.780488 +0.853659 +1.890244
8370212 +1.006836 -0.003906 +0.026367 -3.902439 +0.853659 +2.134146
8370214 +1.006348 -0.008301 +0.029785 -3.841464 +0.914634 +2.073171
8370216 +1.012695 -0.005859 +0.028320 -3.902439 +0.670732 +2.256098
8370218 +1.007812 -0.006348 +0.028809 -3.780488 +0.853659 +2.317073
8370220 +1.010742 -0.007812 +0.031250 -3.963415 +0.853659 +2.012195
8370222 +1.008301 -0.005859 +0.031738 -3.780488 +0.731707 +1.890244
8370224 +1.004395 -0.009277 +0.027344 -3.780488 +0.975610 +2.134146
8370226 +1.002930 -0.009277 +0.024414 -3.841464 +0.853659 +2.195122
8370228 +1.005371 -0.004883 +0.025879 -3.841464 +0.853659 +2.256098
8370230 +1.004395 -0.007812 +0.023926 -3.780488 +0.792683 +2.012195
8370232 +1.010254 -0.004395 +0.023926 -3.902439 +0.975610 +2.073171
8370234 +1.005371 -0.008789 +0.031250 -3.902439 +0.853659 +2.256098
8370236 +1.005859 -0.008301 +0.024902 -3.658537 +0.914634 +2.073171
8370238 +1.008301 -0.006836 +0.029785 -3.658537 +0.975610 +2.134146
8370240 +1.011230 -0.010742 +0.028809 -3.902439 +0.670732 +2.073171
8370242 +1.005371 -0.003906 +0.030273 -3.780488 +0.853659 +1.951220
8370244 +1.006348 -0.008789 +0.032715 -3.658537 +1.097561 +2.256098
8370246 +1.002930 -0.013672 +0.030273 -3.902439 +0.914634 +2.195122
8370248 +1.005859 -0.005371 +0.028320 -3.841464 +0.975610 +2.012195
8370250 +1.006348 -0.008301 +0.024414 -3.841464 +0.792683 +1.951220
8370252 +1.002441 -0.006348 +0.028809 -3.841464 +0.853659 +2.073171
8370254 +1.008789 -0.009766 +0.037598 -3.841464 +0.731707 +2.195122
8370256 +1.004883 -0.014160 +0.031738 -3.902439 +0.914634 +2.012195
8370258 +1.005371 -0.007324 +0.028320 -3.780488 +0.914634 +2.195122
8370261 +1.005859 -0.008789 +0.029297 -3.719512 +0.792683 +2.134146
8370263 +1.003906 -0.005859 +0.031738 -3.780488 +0.792683 +2.195122
8370265 +1.006348 -0.004395 +0.025879 -3.719512 +0.975610 +2.012195
8370267 +1.002441 -0.002930 +0.028809 -3.780488 +0.914634 +2.073171
8370269 +1.003906 +0.001465 +0.035645 -3.780488 +0.914634 +2.195122
8370271 +1.010742 -0.009277 +0.038574 -3.902439 +0.792683 +2.073171
8370273 +1.004395 -0.003418 +0.029297 -3.780488 +0.792683 +2.134146
8370275 +1.006836 -0.007324 +0.026855 -3.902439 +1.036585 +2.256098
8370277 +1.007324 -0.007324 +0.029785 -3.780488 +0.914634 +1.951220
8370279 +1.005859 -0.008789 +0.027832 -3.780488 +0.914634 +1.951220
8370281 +1.011719 -0.004883 +0.025391 -3.902439 +0.853659 +2.256098
8370283 +1.008789 -0.010254 +0.027832 -3.841464 +0.853659 +2.195122
8370285 +1.002441 -0.003906 +0.030273 -3.780488 +0.914634 +2.256098
8370287 +1.008789 -0.008301 +0.027344 -3.841464 +1.036585 +2.012195
8370289 +1.003906 -0.007812 +0.031250 -3.780488 +0.853659 +2.012195
8370291 +1.003418 -0.010254 +0.022461 -3.841464 +0.975610 +1.951220
8370293 +1.007324 -0.004883 +0.022949 -3.719512 +0.853659 +2.256098
8370295 +1.009766 -0.007324 +0.029785 -3.963415 +0.914634 +2.195122
8370297 +1.000977 -0.008301 +0.032715 -3.780488 +0.792683 +1.890244
8370299 +1.010254 -0.008301 +0.020020 -3.719512 +0.792683 +2.012195
8370301 +1.004395 -0.005859 +0.025391 -3.780488 +1.036585 +2.195122
8370303 +1.004883 -0.003906 +0.025391 -3.780488 +0.975610 +2.134146
8370305 +1.004883 -0.001953 +0.035645 -3.902439 +0.792683 +2.073171
8370307 +1.002930 -0.005859 +0.032227 -3.780488 +0.731707 +2.134146
8370309 +1.007324 -0.001953 +0.028320 -3.841464 +0.853659 +2.012195
8370311 +1.005859 -0.008301 +0.030762 -3.719512 +0.975610 +2.134146
8370313 +1.010742 -0.005859 +0.027344 -3.841464 +0.914634 +2.073171
8370315 +1.010742 -0.008301 +0.028320 -3.841464 +1.036585 +2.195122
8370317 +1.006836 -0.004883 +0.026367 -3.719512 +0.853659 +2.012195
8370319 +1.001465 -0.010254 +0.034668 -3.841464 +0.853659 +2.134146
8370321 +1.005859 -0.006836 +0.036133 -3.902439 +0.670732 +2.073171
8370323 +1.007812 -0.008789 +0.027832 -3.719512 +0.731707 +2.073171
8370325 +1.007812 -0.007324 +0.028320 -3.963415 +0.853659 +2.195122
8370327 +1.003418 -0.009277 +0.031250 -3.963415 +0.792683 +2.012195
8370329 +1.003906 -0.005859 +0.032227 -3.841464 +0.792683 +2.073171
8370331 +1.006836 -0.005371 +0.026367 -3.780488 +0.853659 +2.073171
8370333 +1.005371 -0.004395 +0.030273 -3.780488 +0.792683 +2.134146
8370335 +1.008789 -0.007812 +0.029297 -3.902439 +0.914634 +1.951220
8370337 +1.003418 -0.002930 +0.028320 -3.841464 +0.975610 +2.073171
8370339 +1.013672 -0.002930 +0.028809 -3.902439 +0.670732 +2.256098
8370341 +1.003906 -0.008789 +0.037109 -4.024390 +0.975610 +2.073171
8370343 +1.003418 -0.005859 +0.026367 -3.719512 +0.853659 +2.134146
8370345 +1.011719 -0.007812 +0.027344 -3.780488 +0.975610 +2.073171
8370347 +1.006348 -0.003906 +0.029785 -3.780488 +1.097561 +1.951220
8370349 +1.005371 -0.005371 +0.037598 -3.841464 +0.792683 +2.134146
8370351 +1.005371 -0.012695 +0.027832 -3.902439 +0.914634 +2.317073
8370353 +1.009766 -0.000488 +0.031250 -4.085366 +1.097561 +2.134146
8370355 +1.012695 -0.007324 +0.032227 -3.658537 +0.853659 +1.890244
8370357 +1.004395 -0.003906 +0.032227 -3.902439 +0.792683 +2.012195
8370359 +1.006836 -0.009277 +0.030273 -3.841464 +0.975610 +2.073171
8370361 +1.003906 -0.007324 +0.023438 -3.963415 +0.914634 +2.134146
8370363 +1.008789 -0.007812 +0.028809 -3.719512 +0.853659 +2.134146
8370365 +1.001953 -0.011230 +0.026855 -3.719512 +1.036585 +1.951220
8370367 +1.004395 -0.003906 +0.025391 -3.658537 +0.853659 +2.134146
8370369 +1.004883 -0.010742 +0.023926 -3.719512 +0.914634 +2.134146
8370371 +1.002441 -0.004395 +0.026855 -3.841464 +0.853659 +2.195122
8370373 +1.006836 -0.000488 +0.029297 -3.902439 +0.670732 +1.951220
8370375 +1.005371 -0.003906 +0.029785 -3.841464 +0.914634 +1.951220
8370377 +1.004395 -0.011230 +0.026855 -3.902439 +0.914634 +1.951220
8370379 +1.010254 -0.005859 +0.021484 -3.780488 +0.731707 +2.195122
8370381 +1.012207 -0.003418 +0.028809 -3.841464 +0.975610 +1.951220
8370383 +1.004883 -0.007812 +0.025391 -3.841464 +0.975610 +2.073171
8370385 +1.004395 -0.008789 +0.024414 -3.902439 +0.914634 +2.012195
8370387 +1.008301 -0.000488 +0.024902 -3.780488 +0.853659 +1.951220
8370389 +1.003418 -0.006836 +0.029297 -3.902439 +0.853659 +2.012195
8370391 +1.003418 -0.006348 +0.020996 -3.963415 +0.853659 +2.134146
8370393 +1.009766 -0.007324 +0.034180 -3.841464 +0.792683 +1.951220
8370395 +1.008301 -0.008301 +0.027832 -3.780488 +1.036585 +2.134146
8370397 +1.003906 -0.010742 +0.030273 -3.780488 +1.036585 +2.195122
8370399 +1.007812 -0.009277 +0.033203 -3.780488 +0.975610 +2.073171
8370401 +1.005371 -0.005371 +0.021484 -3.719512 +0.853659 +2.134146
8370403 +1.005371 -0.002441 +0.035156 -3.719512 +0.975610 +2.134146
8370405 +1.007812 -0.003906 +0.032715 -3.841464 +0.731707 +2.012195
8370407 +1.007812 -0.011230 +0.033691 -3.658537 +0.975610 +1.951220
8370409 +1.013672 -0.003418 +0.029297 -3.780488 +1.036585 +2.073171
8370411 +1.004883 -0.006348 +0.032227 -3.902439 +0.853659 +2.256098
8370413 +1.009766 -0.010742 +0.029297 -3.780488 +0.792683 +2.012195
8370415 +1.005859 -0.007812 +0.035645 -3.780488 +1.158537 +2.195122
8370417 +1.010254 -0.004395 +0.028320 -3.841464 +0.853659 +2.073171
8370419 +1.007324 -0.006348 +0.038574 -3.719512 +0.853659 +2.073171
8370421 +1.007812 -0.007324 +0.032715 -3.780488 +0.853659 +2.134146
8370423 +1.007324 -0.003418 +0.026855 -3.841464 +0.853659 +1.951220
8370425 +1.001953 -0.004395 +0.031738 -3.841464 +1.158537 +2.317073
8370427 +1.004395 -0.008789 +0.026855 -3.780488 +0.792683 +1.951220
8370429 +1.008789 -0.009277 +0.022949 -3.963415 +0.914634 +2.012195
8370431 +1.004883 -0.005859 +0.030273 -3.719512 +0.853659 +2.134146
8370433 +1.007812 -0.012695 +0.028809 -3.658537 +0.792683 +2.195122
8370435 +0.999512 -0.008789 +0.035645 -3.902439 +0.853659 +2.073171
8370437 +1.008789 -0.006836 +0.028809 -3.841464 +0.914634 +2.073171
8370439 +1.002441 -0.008301 +0.029297 -3.963415 +0.670732 +1.890244
8370441 +1.010254 -0.006348 +0.029297 -3.841464 +0.853659 +2.134146
8370443 +1.006836 -0.008789 +0.018555 -3.780488 +0.975610 +2.317073
8370445 +1.003418 -0.008301 +0.026855 -3.841464 +0.914634 +2.073171
8370447 +1.001465 -0.013184 +0.030273 -3.841464 +0.853659 +2.378049
8370449 +1.005371 -0.007812 +0.024414 -3.719512 +1.036585 +2.012195
8370451 +1.009766 -0.003906 +0.030273 -3.841464 +0.914634 +2.073171
8370453 +1.003906 -0.005371 +0.028320 -3.963415 +1.036585 +2.195122
8370455 +1.009766 -0.012695 +0.027344 -3.780488 +0.792683 +2.134146
8370457 +1.008789 -0.007324 +0.025879 -3.780488 +0.731707 +2.073171
8370459 +1.009766 -0.006348 +0.034180 -4.024390 +0.975610 +1.951220
8370461 +1.014160 -0.003906 +0.026855 -3.963415 +0.853659 +2.012195
8370463 +1.006836 -0.010742 +0.017090 -3.719512 +0.975610 +2.134146
8370465 +1.007324 -0.008301 +0.032715 -3.719512 +0.914634 +2.012195
8370467 +1.006348 -0.007324 +0.032227 -3.719512 +0.853659 +2.195122
8370469 +1.004395 -0.002930 +0.024414 -3.719512 +0.914634 +2.195122
8370471 +1.003906 -0.003906 +0.019531 -3.841464 +0.792683 +2.195122
8370473 +1.010742 -0.005371 +0.026367 -3.902439 +0.731707 +2.256098
8370475 +1.012695 -0.000488 +0.025879 -3.780488 +0.975610 +2.012195
8370477 +1.009277 -0.005371 +0.023926 -3.841464 +0.731707 +2.134146
8370479 +1.007324 -0.002930 +0.035645 -3.719512 +0.914634 +2.378049
8370482 +1.009277 -0.002930 +0.031738 -3.841464 +0.914634 +2.012195
8370484 +1.006836 -0.003906 +0.031738 -3.902439 +0.731707 +2.073171
8370486 +1.003906 -0.013672 +0.030762 -3.658537 +0.914634 +2.195122
8370488 +1.010742 -0.001953 +0.022949 -3.963415 +0.853659 +2.134146
8370490 +1.008301 -0.003906 +0.026367 -3.780488 +0.853659 +2.134146
8370492 +1.010742 -0.002441 +0.029785 -3.841464 +1.036585 +2.073171
8370494 +1.009766 -0.004883 +0.023438 -3.902439 +0.792683 +2.073171
8370496 +1.008789 -0.005859 +0.029297 -3.841464 +0.792683 +1.890244
8370498 +1.009277 -0.002930 +0.029297 -3.902439 +0.914634 +2.195122
8370500 +1.001465 -0.007324 +0.025879 -3.841464 +0.914634 +1.890244
8370502 +1.003418 -0.012695 +0.029785 -3.780488 +0.914634 +2.073171
8370504 +1.005859 -0.002930 +0.024902 -3.719512 +0.853659 +2.134146
8370506 +1.007812 -0.009766 +0.027832 -3.780488 +0.792683 +2.256098
8370508 +1.002930 -0.011230 +0.025391 -3.902439 +0.731707 +2.073171
8370510 +1.011719 -0.012207 +0.025391 -3.780488 +0.853659 +2.317073
8370512 +1.000977 -0.005859 +0.032715 -3.902439 +1.036585 +2.012195
8370514 +1.011230 -0.003906 +0.027832 -3.902439 +1.036585 +2.012195
8370516 +1.008789 -0.001465 +0.028320 -4.024390 +0.670732 +2.134146
8370518 +1.007812 -0.008789 +0.026855 -3.902439 +0.975610 +2.012195
8370520 +1.005859 -0.010254 +0.023926 -3.719512 +1.036585 +2.073171
8370522 +1.011230 -0.006836 +0.027832 -3.780488 +0.975610 +2.012195
8370524 +1.011230 -0.008789 +0.027344 -3.719512 +0.853659 +2.073171
8370526 +1.003418 -0.004883 +0.039551 -3.902439 +0.853659 +2.073171
8370528 +1.009277 -0.011230 +0.028320 -3.780488 +1.036585 +1.951220
8370530 +1.003418 -0.008789 +0.028320 -3.719512 +0.731707 +2.073171
8370532 +1.005371 -0.011230 +0.027344 -3.902439 +1.097561 +2.073171
8370534 +1.005371 -0.011719 +0.034180 -3.780488 +0.853659 +2.073171
8370536 +1.004395 -0.005859 +0.022461 -3.841464 +0.792683 +1.890244
8370538 +1.006836 -0.011230 +0.039062 -3.841464 +0.792683 +2.134146
8370540 +1.006348 -0.005371 +0.028320 -3.841464 +0.792683 +2.195122
8370542 +1.006348 -0.010742 +0.023438 -3.780488 +0.914634 +2.012195
8370544 +1.008789 -0.006348 +0.022949 -3.719512 +0.792683 +1.829268
8370546 +1.009277 -0.005371 +0.026855 -3.841464 +0.914634 +2.073171
8370548 +1.008789 -0.004395 +0.026367 -3.841464 +0.731707 +2.012195
8370550 +1.003418 -0.010742 +0.027832 -3.780488 +0.914634 +2.134146
8370552 +1.005859 -0.006348 +0.029785 -3.841464 +0.853659 +2.134146
8370554 +1.005859 -0.002441 +0.020508 -3.780488 +0.914634 +2.134146
8370556 +1.006836 -0.009766 +0.026855 -3.719512 +0.731707 +2.073171
8370558 +1.000977 -0.008301 +0.035156 -3.902439 +0.792683 +2.256098
8370560 +1.003906 -0.002930 +0.035645 -3.719512 +0.731707 +2.073171
8370562 +1.005859 -0.004395 +0.022461 -3.841464 +0.914634 +2.073171
8370564 +0.999512 -0.005859 +0.028809 -3.902439 +0.914634 +2.134146
8370566 +1.005859 -0.001953 +0.031738 -3.658537 +0.914634 +2.012195
8370568 +1.010742 -0.007324 +0.017578 -3.658537 +0.792683 +2.256098
8370570 +1.006836 -0.005859 +0.027344 -3.902439 +0.853659 +2.012195
8370572 +1.009277 -0.007324 +0.031250 -3.780488 +0.975610 +2.012195
8370574 +1.000977 -0.005859 +0.029785 -3.841464 +0.914634 +2.073171
8370576 +0.996582 -0.008301 +0.021484 -3.780488 +0.914634 +2.134146
8370578 +1.005859 -0.003906 +0.030762 -3.658537 +0.975610 +2.134146
8370580 +1.006836 -0.010742 +0.020508 -3.780488 +0.792683 +2.073171
8370582 +1.004883 -0.011719 +0.025879 -3.841464 +1.036585 +2.317073
8370584 +1.003906 -0.004395 +0.032227 -3.902439 +0.731707 +2.073171
8370586 +1.000977 -0.008789 +0.022461 -3.841464 +0.792683 +2.073171
8370588 +1.004883 -0.005859 +0.026855 -3.963415 +0.914634 +2.073171
8370590 +1.009277 -0.005371 +0.031738 -3.780488 +0.914634 +2.073171
8370592 +1.002930 -0.010742 +0.028320 -3.719512 +0.914634 +2.073171
8370594 +1.011230 -0.009277 +0.030762 -3.902439 +0.853659 +2.012195
8370596 +1.008301 -0.005859 +0.031738 -3.902439 +1.036585 +1.707317
8370598 +1.001465 -0.013184 +0.026855 -3.902439 +0.975610 +2.073171
8370600 +1.007812 -0.007812 +0.029297 -3.780488 +0.853659 +1.829268
8370602 +1.001953 -0.009766 +0.032715 -3.780488 +0.975610 +2.073171
8370604 +1.003418 -0.003906 +0.030273 -3.780488 +0.975610 +2.073171
8370606 +1.008789 -0.005371 +0.028320 -3.841464 +0.731707 +2.134146
8370608 +1.005371 -0.006836 +0.022461 -3.841464 +0.914634 +2.195122
8370610 +1.004395 -0.006836 +0.035645 -3.963415 +0.975610 +2.195122
8370612 +1.006348 -0.008789 +0.033203 -3.780488 +0.914634 +1.951220
8370614 +1.003418 -0.006836 +0.024414 -3.780488 +0.792683 +2.195122
8370616 +1.001465 -0.000488 +0.028809 -3.902439 +0.975610 +2.073171
8370618 +1.006836 -0.003906 +0.027832 -3.841464 +0.853659 +2.012195
8370620 +1.004883 -0.005371 +0.027344 -3.780488 +0.853659 +2.195122
8370622 +1.004883 -0.006836 +0.038574 -3.780488 +0.670732 +2.256098
8370624 +1.009766 -0.006836 +0.028320 -3.780488 +0.731707 +2.012195
8370626 +0.997559 -0.007812 +0.026367 -3.841464 +0.914634 +2.012195
8370628 +1.006836 -0.012207 +0.029297 -3.841464 +0.792683 +2.134146
8370630 +1.011719 -0.011719 +0.034180 -3.780488 +0.975610 +2.134146
8370632 +1.011719 -0.003418 +0.031738 -3.902439 +0.792683 +2.195122
8370634 +1.005859 -0.013184 +0.036133 -3.780488 +1.036585 +2.134146
8370636 +1.003418 -0.009766 +0.029785 -3.841464 +0.853659 +2.134146
8370638 +1.009766 -0.014648 +0.029785 -3.780488 +0.853659 +2.012195
8370640 +1.004883 -0.008301 +0.025879 -3.780488 +0.792683 +2.317073
8370642 +1.003906 -0.005859 +0.022949 -3.780488 +0.914634 +2.195122
8370644 +1.007324 -0.007812 +0.021484 -3.902439 +0.975610 +2.073171
8370646 +1.002441 -0.004883 +0.025391 -3.719512 +0.914634 +1.951220
8370648 +1.012207 -0.002441 +0.020996 -3.658537 +0.853659 +2.012195
8370650 +1.004395 -0.003418 +0.030273 -3.841464 +0.731707 +1.890244
8370652 +1.012207 -0.004395 +0.024414 -3.780488 +1.036585 +2.256098
8370654 +1.007812 -0.005859 +0.026855 -3.841464 +0.975610 +2.073171
8370656 +1.008789 -0.004883 +0.031738 -3.841464 +0.914634 +2.073171
8370658 +1.008301 -0.005859 +0.037109 -3.719512 +0.914634 +2.134146
8370660 +1.008301 -0.005859 +0.025391 -3.841464 +0.853659 +2.134146
8370662 +1.010742 -0.003906 +0.030273 -3.902439 +0.975610 +1.951220
8370664 +1.008301 -0.004395 +0.033203 -3.719512 +0.792683 +2.073171
8370666 +1.008789 -0.007324 +0.020508 -3.841464 +0.975610 +2.256098
8370668 +1.005859 +0.000000 +0.016602 -3.780488 +0.975610 +2.012195
8370670 +1.008789 -0.002441 +0.023438 -3.841464 +0.975610 +2.073171
8370672 +1.005859 -0.006836 +0.027344 -3.658537 +0.914634 +2.012195
8370674 +1.011230 -0.002441 +0.024902 -3.841464 +0.853659 +2.195122
8370676 +1.002441 -0.001953 +0.026855 -3.780488 +0.914634 +2.195122
8370678 +1.012207 -0.001953 +0.035156 -3.841464 +0.792683 +2.378049
8370680 +1.005371 -0.004883 +0.032715 -3.902439 +0.853659 +2.073171
8370682 +1.008301 -0.012695 +0.033203 -3.841464 +0.670732 +1.890244
8370684 +1.013672 -0.003906 +0.033203 -3.780488 +0.853659 +2.195122
8370686 +1.009277 -0.000488 +0.024902 -3.780488 +0.670732 +2.134146
8370688 +1.013184 -0.008301 +0.028320 -3.902439 +0.853659 +2.012195
8370690 +1.005371 -0.007812 +0.024414 -3.902439 +1.097561 +2.012195
8370692 +0.998535 -0.001953 +0.037109 -3.902439 +0.975610 +2.012195
8370694 +1.005859 -0.004395 +0.030273 -3.719512 +0.853659 +2.012195
8370696 +1.006348 -0.008789 +0.041016 -3.902439 +0.853659 +2.073171
8370698 +1.008789 -0.008301 +0.026367 -3.719512 +0.914634 +1.890244
8370700 +1.005371 -0.005859 +0.025879 -3.780488 +0.853659 +2.073171
8370703 +1.001953 -0.013184 +0.029297 -3.780488 +0.975610 +2.012195
8370705 +1.005371 -0.009277 +0.033203 -3.658537 +0.853659 +2.012195
8370707 +1.017578 -0.010742 +0.039551 -3.902439 +0.975610 +2.256098
8370709 +1.007324 -0.006348 +0.037598 -3.902439 +0.914634 +1.951220
8370711 +1.009766 -0.003418 +0.027832 -3.719512 +0.975610 +2.073171
8370713 +1.002441 -0.012207 +0.034668 -3.719512 +0.914634 +2.134146
8370715 +1.006348 -0.006348 +0.034668 -3.841464 +0.853659 +2.134146
8370717 +1.005371 -0.007812 +0.035156 -3.902439 +1.036585 +2.195122
8370719 +1.002441 -0.010742 +0.031250 -3.902439 +0.731707 +2.195122
8370721 +1.008789 -0.013672 +0.023438 -3.780488 +0.853659 +2.012195
8370723 +1.009277 -0.009277 +0.025879 -3.780488 +0.975610 +2.317073
8370725 +1.003906 -0.009766 +0.031738 -3.963415 +0.792683 +2.134146
8370727 +1.004883 -0.004883 +0.026855 -3.780488 +0.914634 +2.195122
8370729 +1.011719 -0.009766 +0.030762 -3.719512 +0.792683 +2.012195
8370731 +1.005371 -0.012207 +0.021484 -3.902439 +0.853659 +2.073171
8370733 +1.001465 -0.002441 +0.033203 -3.658537 +0.975610 +2.134146
8370735 +1.003418 -0.003418 +0.028320 -3.658537 +1.036585 +2.195122
8370737 +1.002441 -0.007812 +0.034668 -3.780488 +0.731707 +2.012195
8370739 +1.004395 -0.009277 +0.026855 -3.780488 +0.914634 +2.134146
8370741 +1.004395 -0.007324 +0.026855 -3.719512 +0.853659 +2.073171
8370743 +1.013184 -0.003418 +0.028809 -3.841464 +0.731707 +2.012195
8370745 +1.005371 -0.015137 +0.031738 -3.780488 +0.914634 +2.317073
8370747 +1.014648 -0.004883 +0.032715 -3.902439 +1.097561 +2.195122
8370749 +1.004395 -0.001465 +0.027344 -3.780488 +0.914634 +2.012195
8370751 +1.001465 -0.003906 +0.025879 -3.841464 +0.853659 +2.012195
8370753 +1.008301 -0.006348 +0.021484 -3.658537 +0.914634 +2.073171
8370755 +1.009766 -0.006836 +0.028320 -3.719512 +0.914634 +2.073171
8370757 +1.006836 -0.002441 +0.037109 -3.841464 +0.914634 +2.012195
8370759 +1.006836 -0.004395 +0.025879 -3.780488 +0.792683 +2.195122
8370761 +1.007324 -0.001953 +0.027344 -3.902439 +0.731707 +2.256098
8370763 +1.010254 -0.005371 +0.024902 -3.780488 +0.914634 +2.073171
8370765 +1.009277 -0.009766 +0.025879 -3.902439 +0.914634 +2.134146
8370767 +1.011719 -0.004395 +0.023438 -3.780488 +0.975610 +2.134146
8370769 +1.008789 -0.003418 +0.021484 -3.841464 +0.792683 +1.951220
8370771 +1.010254 -0.000977 +0.032715 -3.902439 +0.853659 +2.012195
8370773 +1.005371 -0.006348 +0.029785 -3.902439 +0.792683 +2.256098
8370775 +1.011719 -0.002441 +0.032227 -3.902439 +0.914634 +2.195122
8370777 +1.006836 -0.005371 +0.021484 -3.841464 +1.097561 +2.012195
8370779 +1.005859 -0.010254 +0.032227 -3.902439 +1.036585 +2.073171
8370781 +1.004395 -0.008789 +0.026367 -4.024390 +0.853659 +2.073171
8370783 +1.004883 -0.006836 +0.017090 -3.841464 +0.731707 +2.073171
8370785 +1.004883 -0.010742 +0.032715 -3.963415 +0.975610 +2.134146
8370787 +1.007812 -0.008789 +0.032715 -3.780488 +0.853659 +2.256098
8370789 +1.010742 -0.005859 +0.032715 -3.841464 +0.914634 +2.073171
8370791 +1.003906 -0.006836 +0.023926 -3.780488 +0.853659 +1.829268
8370793 +1.005859 -0.004395 +0.025391 -3.597561 +0.853659 +1.890244
8370795 +1.006348 -0.004395 +0.029297 -3.902439 +1.036585 +2.134146
8370797 +1.004395 -0.010254 +0.023438 -3.902439 +0.975610 +2.073171
8370799 +1.003906 -0.007812 +0.035645 -3.719512 +0.914634 +1.951220
8370801 +1.005859 -0.003418 +0.022949 -3.719512 +0.731707 +2.256098
8370803 +1.007324 -0.008301 +0.032227 -3.841464 +0.853659 +1.951220
8370805 +1.007812 -0.008301 +0.023926 -3.780488 +1.036585 +2.134146
8370807 +1.003906 -0.010254 +0.034180 -3.902439 +0.792683 +2.073171
8370809 +1.007812 -0.010254 +0.028320 -3.719512 +0.975610 +2.012195
8370811 +1.013184 -0.009766 +0.027832 -3.780488 +0.975610 +2.073171
8370813 +1.006836 -0.011230 +0.029297 -3.719512 +0.914634 +2.256098
8370815 +1.001953 -0.005859 +0.028320 -3.841464 +0.914634 +2.073171
8370817 +1.006836 -0.003418 +0.030762 -3.902439 +0.731707 +2.073171
8370819 +1.002930 -0.012207 +0.022461 -3.841464 +0.853659 +1.890244
8370821 +1.009766 -0.007812 +0.026367 -3.780488 +0.914634 +2.195122
8370823 +1.008789 -0.012207 +0.028320 -3.719512 +0.914634 +1.951220
8370825 +1.004883 -0.008301 +0.026855 -3.841464 +1.036585 +2.256098
8370827 +1.007324 -0.004883 +0.029297 -3.719512 +0.792683 +1.951220
8370829 +1.007324 -0.005859 +0.029297 -3.780488 +0.731707 +2.073171
8370831 +1.010254 -0.005371 +0.028809 -3.719512 +0.731707 +2.073171
8370833 +1.006836 -0.009766 +0.038086 -3.719512 +1.036585 +1.951220
8370835 +1.008301 -0.006348 +0.034180 -3.780488 +0.975610 +1.951220
8370837 +1.007812 -0.007812 +0.031738 -3.902439 +1.036585 +2.195122
8370839 +1.008301 -0.010254 +0.028320 -3.780488 +0.975610 +2.012195
8370841 +1.006348 -0.011230 +0.032227 -3.841464 +0.792683 +1.890244
8370843 +1.008789 -0.007812 +0.029297 -3.658537 +0.914634 +2.073171
8370845 +1.004883 -0.006348 +0.031738 -3.963415 +0.853659 +2.134146
8370847 +1.012695 -0.010254 +0.034180 -3.902439 +0.914634 +2.012195
8370849 +1.003418 -0.009277 +0.028809 -3.780488 +0.792683 +2.195122
8370851 +1.001953 -0.006348 +0.020996 -3.597561 +0.792683 +2.073171
8370853 +1.002930 -0.004395 +0.035156 -3.719512 +0.853659 +2.195122
8370855 +1.002930 -0.007812 +0.028320 -3.780488 +0.670732 +2.073171
8370857 +1.003418 -0.008301 +0.038574 -3.841464 +1.036585 +2.012195
8370859 +1.008301 -0.008301 +0.031250 -3.841464 +0.975610 +2.134146
8370861 +1.011719 +0.000000 +0.027344 -3.902439 +0.914634 +2.134146
8370863 +1.006348 -0.004883 +0.025879 -3.841464 +0.731707 +2.012195
8370865 +1.006836 -0.009277 +0.026855 -3.902439 +0.914634 +2.012195
8370867 +1.006836 -0.003906 +0.029297 -3.780488 +0.914634 +2.073171
8370869 +1.014648 -0.002441 +0.024414 -3.841464 +0.792683 +2.012195
8370871 +1.002441 -0.004883 +0.029785 -3.841464 +0.914634 +1.951220
8370873 +1.007812 +0.000977 +0.034180 -3.780488 +0.853659 +2.256098
8370875 +1.011230 -0.004883 +0.027344 -3.963415 +0.792683 +2.012195
8370877 +1.004883 -0.004883 +0.032715 -3.780488 +0.975610 +2.012195
8370879 +1.006836 -0.003906 +0.020508 -3.841464 +0.853659 +2.012195
8370881 +1.005371 -0.007324 +0.025879 -3.780488 +0.853659 +2.195122
8370883 +1.008301 -0.014648 +0.031250 -3.780488 +0.975610 +2.012195
8370885 +1.010254 -0.007812 +0.034668 -3.963415 +0.914634 +1.951220
8370887 +1.007324 -0.004883 +0.033691 -3.719512 +0.914634 +2.073171
8370889 +1.010742 -0.008301 +0.025391 -3.841464 +1.036585 +2.134146
8370891 +1.002930 -0.007812 +0.027344 -3.841464 +0.792683 +2.012195
8370893 +1.002930 -0.002441 +0.030762 -3.902439 +0.792683 +2.317073
8370895 +1.000488 -0.006836 +0.033203 -3.902439 +0.853659 +1.951220
8370897 +1.011230 -0.004395 +0.026855 -3.719512 +1.036585 +1.829268
8370899 +1.005859 -0.010254 +0.030762 -3.719512 +0.792683 +2.195122
8370901 +1.005859 -0.008301 +0.039551 -3.780488 +0.731707 +2.134146
8370903 +1.005859 -0.004883 +0.026855 -3.780488 +1.097561 +2.012195
8370905 +1.011719 -0.008789 +0.033203 -3.719512 +0.731707 +2.073171
8370907 +1.010254 -0.008301 +0.034668 -3.841464 +0.914634 +2.073171
8370909 +1.005859 -0.009766 +0.019531 -3.963415 +0.853659 +2.134146
8370911 +1.000977 -0.005859 +0.024902 -3.658537 +0.914634 +2.195122
8370913 +1.004395 -0.003906 +0.033203 -3.841464 +0.853659 +2.134146
8370915 +1.004395 -0.008301 +0.024414 -3.719512 +0.853659 +2.073171
8370917 +1.008789 -0.008789 +0.025879 -3.902439 +0.670732 +2.256098
8370919 +1.000488 -0.009766 +0.015625 -3.719512 +0.914634 +2.195122
8370921 +1.005859 -0.005371 +0.035156 -3.902439 +0.975610 +2.195122
8370924 +1.008789 -0.006836 +0.030273 -3.841464 +1.036585 +2.256098
8370926 +1.010254 -0.007812 +0.030762 -3.841464 +0.670732 +2.012195
8370928 +1.011719 -0.009277 +0.023438 -3.780488 +0.792683 +1.951220
8370930 +1.010254 -0.007324 +0.024414 -3.902439 +0.792683 +1.829268
8370932 +1.006348 -0.003906 +0.028320 -3.963415 +0.853659 +2.073171
8370934 +1.008789 -0.006348 +0.033691 -3.780488 +0.853659 +2.134146
8370936 +1.011719 -0.006348 +0.025391 -3.841464 +0.914634 +2.317073
8370938 +1.004883 -0.004395 +0.036133 -3.658537 +0.792683 +2.256098
8370940 +1.005371 -0.008789 +0.025879 -3.902439 +0.914634 +2.012195
8370942 +1.009766 -0.007812 +0.032227 -3.780488 +0.853659 +2.073171
8370944 +1.007812 +0.001465 +0.036621 -3.719512 +0.914634 +1.890244
8370946 +1.009277 -0.003418 +0.038086 -3.719512 +0.975610 +2.012195
8370948 +1.010742 -0.001953 +0.028809 -3.658537 +0.914634 +1.951220
8370950 +1.004395 -0.001465 +0.021973 -3.902439 +1.036585 +2.073171
8370952 +0.999023 -0.002930 +0.022461 -3.841464 +1.036585 +2.073171
8370954 +1.009766 -0.008301 +0.031738 -3.841464 +1.097561 +2.256098
8370956 +1.009766 -0.004883 +0.029785 -3.780488 +1.036585 +2.134146
8370958 +1.002930 -0.003418 +0.034668 -3.780488 +0.914634 +2.012195
8370960 +1.006836 -0.008301 +0.028320 -3.780488 +0.792683 +2.134146
8370962 +1.006836 -0.005859 +0.032715 -3.841464 +0.792683 +2.073171
8370964 +1.011230 -0.005859 +0.025879 -3.780488 +0.975610 +2.256098
8370966 +1.005859 -0.002441 +0.022949 -3.780488 +0.853659 +2.073171
8370968 +1.009277 -0.004395 +0.024902 -3.841464 +0.975610 +2.134146
8370970 +1.007324 +0.001953 +0.017090 -3.658537 +1.036585 +2.012195
8370972 +1.007812 -0.006836 +0.031738 -3.841464 +0.853659 +2.073171
8370974 +1.009277 -0.007324 +0.029785 -3.780488 +0.853659 +2.317073
8370976 +1.008301 -0.006836 +0.027344 -3.963415 +0.914634 +1.951220
8370978 +1.002930 -0.006348 +0.027344 -3.963415 +0.914634 +2.195122
8370980 +1.007324 -0.010742 +0.031250 -3.963415 +0.975610 +1.951220
8370982 +1.009277 -0.008301 +0.027344 -3.780488 +0.853659 +2.012195
8370984 +1.007812 -0.010742 +0.033203 -3.841464 +0.975610 +2.073171
8370986 +1.006348 -0.008301 +0.024902 -4.024390 +0.731707 +2.195122
8370988 +1.011230 -0.005859 +0.032715 -3.841464 +1.036585 +2.195122
8370990 +1.003418 -0.007324 +0.030762 -3.780488 +0.975610 +2.073171
8370992 +1.010742 -0.006836 +0.039062 -3.719512 +0.853659 +2.134146
8370994 +1.011230 -0.008301 +0.026855 -3.841464 +0.792683 +2.012195
8370996 +1.007324 -0.006348 +0.030762 -3.841464 +0.853659 +2.012195
8370998 +1.014648 -0.008789 +0.028809 -3.658537 +0.792683 +2.073171
8371000 +1.002441 -0.007812 +0.031738 -3.719512 +0.975610 +2.073171
8371002 +1.008789 -0.010742 +0.028320 -3.902439 +0.853659 +1.890244
8371004 +1.012695 -0.007324 +0.030762 -3.902439 +0.792683 +2.012195
8371006 +1.007324 -0.006348 +0.027832 -3.902439 +0.670732 +2.134146
8371008 +1.000977 -0.009277 +0.025879 -3.902439 +1.036585 +2.134146
8371010 +1.004883 -0.007324 +0.032715 -3.719512 +0.792683 +2.073171
8371012 +1.015625 -0.013672 +0.023438 -3.780488 +0.731707 +2.073171
8371014 +1.009277 -0.007324 +0.032715 -3.658537 +0.853659 +2.134146
8371016 +1.005859 -0.010254 +0.028809 -3.780488 +0.731707 +2.195122
8371018 +1.009277 -0.007812 +0.029297 -3.780488 +0.853659 +2.073171
8371020 +1.008789 -0.004883 +0.029785 -3.719512 +0.853659 +2.317073
8371022 +1.005859 -0.011719 +0.032715 -3.597561 +0.914634 +2.012195
8371024 +1.005859 -0.005371 +0.034180 -3.719512 +0.914634 +2.012195
8371026 +1.009277 -0.005371 +0.023926 -3.841464 +0.792683 +2.012195
8371028 +1.008301 -0.004395 +0.032227 -3.841464 +0.792683 +2.256098
8371030 +1.000000 -0.005371 +0.027344 -3.780488 +0.792683 +2.256098
8371032 +1.007812 -0.008301 +0.016602 -3.780488 +0.853659 +2.134146
8371034 +1.000977 -0.008301 +0.031738 -3.963415 +0.792683 +2.012195
8371036 +1.005371 -0.008789 +0.034180 -3.658537 +1.036585 +2.317073
8371038 +1.005859 -0.008789 +0.027344 -3.597561 +0.975610 +2.134146
8371040 +1.005371 -0.004883 +0.032227 -3.963415 +0.853659 +2.134146
8371042 +1.007812 -0.007324 +0.029785 -3.780488 +0.914634 +2.012195
8371044 +1.005371 -0.004883 +0.032227 -3.841464 +0.792683 +2.256098
8371046 +1.009766 -0.007812 +0.024902 -3.902439 +0.731707 +2.073171
8371048 +1.012207 -0.005371 +0.026855 -3.719512 +1.097561 +2.073171
8371050 +1.006836 -0.003906 +0.032227 -3.780488 +1.036585 +2.195122
8371052 +1.008301 -0.008301 +0.032227 -3.780488 +0.792683 +2.134146
8371054 +1.005859 -0.005859 +0.028809 -3.841464 +0.731707 +2.134146
8371056 +1.007324 -0.006348 +0.030762 -3.719512 +0.853659 +2.256098
8371058 +1.014160 -0.002441 +0.036133 -3.902439 +0.914634 +1.951220
8371060 +1.005859 -0.020508 +0.031738 -3.902439 +0.853659 +2.134146
8371062 +1.007812 -0.009766 +0.024414 -3.780488 +0.853659 +2.256098
8371064 +1.016602 -0.002441 +0.029297 -3.780488 +0.853659 +2.195122
8371066 +1.008789 -0.005859 +0.023438 -3.963415 +0.670732 +2.012195
8371068 +1.007812 +0.000000 +0.033691 -3.841464 +0.853659 +2.195122
8371070 +1.006836 -0.001953 +0.036621 -3.841464 +0.853659 +1.890244
8371072 +1.011230 -0.004395 +0.024902 -3.719512 +0.914634 +2.012195
8371074 +1.009277 -0.002930 +0.032715 -3.719512 +0.792683 +2.073171
8371076 +1.010742 -0.001465 +0.027832 -3.780488 +0.792683 +2.134146
8371078 +1.005371 -0.006348 +0.024902 -3.841464 +0.914634 +2.012195
8371080 +1.004395 -0.005859 +0.024902 -3.841464 +0.853659 +2.012195
8371082 +1.005859 -0.010742 +0.019043 -3.780488 +0.914634 +2.012195
8371084 +1.008789 -0.005859 +0.024902 -3.719512 +0.792683 +2.012195
8371086 +1.010254 -0.009277 +0.033203 -3.719512 +1.036585 +1.951220
8371088 +1.008301 -0.006348 +0.020996 -3.963415 +0.914634 +2.317073
8371090 +1.013184 -0.008301 +0.032227 -3.719512 +0.853659 +2.134146
8371092 +1.003418 -0.009277 +0.034668 -3.841464 +1.097561 +2.195122
8371094 +1.004395 -0.006348 +0.026367 -3.780488 +0.792683 +1.890244
8371096 +1.007324 -0.007324 +0.036621 -3.841464 +0.792683 +1.890244
8371098 +1.004395 -0.008301 +0.020020 -3.780488 +0.792683 +2.134146
8371100 +1.000488 -0.007324 +0.025391 -3.780488 +0.975610 +2.134146
8371102 +1.001953 -0.003906 +0.028809 -3.719512 +0.914634 +2.134146
8371104 +1.013672 +0.000488 +0.037598 -3.902439 +0.670732 +2.134146
8371106 +1.011719 -0.004883 +0.041016 -3.902439 +0.853659 +2.134146
8371108 +1.002441 -0.011719 +0.028809 -3.780488 +0.914634 +2.134146
8371110 +1.003418 -0.006836 +0.020996 -4.085366 +0.914634 +2.256098
8371112 +1.008789 -0.007324 +0.030762 -3.658537 +0.853659 +2.195122
8371114 +1.013184 +0.000000 +0.026855 -3.841464 +0.914634 +2.134146
8371116 +1.007812 -0.006836 +0.036133 -3.841464 +0.731707 +2.195122
8371118 +1.006348 -0.007324 +0.035156 -3.780488 +0.792683 +2.073171
8371120 +1.006836 -0.002441 +0.024902 -3.841464 +0.853659 +2.195122
8371122 +1.006348 +0.000488 +0.028809 -3.902439 +0.914634 +1.890244
8371124 +1.004883 -0.008301 +0.037598 -3.780488 +0.853659 +2.134146
8371126 +1.008301 -0.003418 +0.025879 -3.841464 +0.853659 +1.951220
8371128 +1.007324 -0.006836 +0.037598 -3.841464 +0.853659 +2.317073
8371130 +1.009766 -0.010254 +0.025879 -3.719512 +0.853659 +2.134146
8371132 +1.005371 -0.005371 +0.031738 -3.780488 +0.975610 +2.012195
8371134 +1.003906 -0.007324 +0.031738 -3.780488 +0.914634 +2.073171
8371136 +1.008301 -0.009277 +0.024902 -3.902439 +0.853659 +2.256098
8371138 +1.008789 -0.005371 +0.021484 -3.902439 +0.792683 +2.134146
8371140 +1.011719 -0.012207 +0.030762 -3.841464 +0.914634 +2.134146
8371142 +1.008301 -0.010742 +0.034180 -3.780488 +0.975610 +2.073171
8371145 +1.006348 -0.009766 +0.035645 -3.780488 +0.853659 +2.195122
8371147 +1.011230 -0.010254 +0.028320 -3.780488 +0.914634 +2.073171
8371149 +1.009277 -0.006836 +0.032227 -3.780488 +0.792683 +2.134146
8371151 +1.005859 -0.012207 +0.029785 -3.841464 +0.914634 +2.012195
8371153 +1.003906 -0.004395 +0.028320 -3.780488 +0.853659 +1.890244
8371155 +1.015137 -0.007324 +0.027344 -3.780488 +0.975610 +2.256098
8371157 +1.007324 -0.005371 +0.022949 -3.902439 +0.975610 +2.073171
8371159 +1.003906 -0.005371 +0.020996 -3.841464 +0.731707 +2.195122
8371161 +1.006348 -0.007324 +0.033691 -3.780488 +0.792683 +2.134146
8371163 +1.007812 -0.003906 +0.025391 -3.841464 +0.975610 +2.012195
8371165 +1.005371 -0.009277 +0.021484 -3.719512 +0.975610 +2.073171
8371167 +1.008789 -0.005371 +0.027344 -3.780488 +0.853659 +2.012195
8371169 +1.006836 -0.003906 +0.029297 -3.902439 +0.914634 +2.195122
8371171 +1.005859 -0.011719 +0.027832 -3.841464 +0.853659 +2.195122
8371173 +1.004883 -0.006348 +0.027344 -3.963415 +0.914634 +2.073171
8371175 +1.010742 -0.004395 +0.030273 -3.902439 +0.853659 +2.012195
8371177 +1.011230 -0.012695 +0.029297 -3.780488 +0.914634 +2.012195
8371179 +1.007812 -0.002930 +0.028320 -3.780488 +0.731707 +2.134146
8371181 +1.006836 -0.008301 +0.027344 -3.841464 +0.731707 +1.951220
8371183 +1.000977 -0.005859 +0.024414 -3.780488 +0.914634 +2.073171
8371185 +1.009766 -0.007324 +0.030273 -3.780488 +0.731707 +2.134146
8371187 +1.005859 -0.012207 +0.036621 -3.658537 +0.731707 +1.890244
8371189 +1.006348 -0.009277 +0.030762 -3.841464 +0.853659 +2.073171
8371191 +1.011230 -0.007812 +0.029297 -3.719512 +0.731707 +1.890244
8371193 +1.004395 -0.009277 +0.036621 -3.841464 +0.914634 +2.134146
8371195 +1.003418 -0.013184 +0.020020 -3.902439 +0.975610 +2.012195
8371197 +1.007812 -0.010742 +0.029297 -3.841464 +0.853659 +2.256098
8371199 +1.009766 -0.007324 +0.035156 -3.902439 +0.792683 +2.012195
8371201 +1.008301 -0.013672 +0.023926 -3.780488 +0.914634 +2.073171
8371203 +1.009766 -0.012695 +0.025391 -3.841464 +0.914634 +2.317073
8371205 +1.005859 -0.009277 +0.031250 -3.841464 +0.914634 +2.134146
8371207 +1.006836 -0.006348 +0.029785 -3.902439 +1.036585 +2.378049
8371209 +1.000488 +0.001465 +0.027344 -3.902439 +0.792683 +2.012195
8371211 +1.007324 -0.002930 +0.025391 -3.963415 +0.914634 +2.073171
8371213 +1.002930 -0.006348 +0.027344 -3.902439 +0.853659 +2.134146
8371215 +0.999512 -0.011230 +0.033691 -3.597561 +0.853659 +2.256098
8371217 +1.007324 -0.003906 +0.031738 -3.841464 +0.914634 +2.195122
8371219 +1.009766 -0.007324 +0.030273 -3.902439 +0.853659 +2.195122
8371221 +1.005859 -0.005859 +0.031250 -3.963415 +0.975610 +2.134146
8371223 +1.005371 -0.008789 +0.030762 -3.902439 +0.975610 +1.951220
8371225 +1.005859 -0.007324 +0.028809 -3.780488 +0.853659 +2.256098
8371227 +1.014648 -0.014160 +0.028809 -3.780488 +0.609756 +2.012195
8371229 +1.009766 -0.007324 +0.029785 -3.658537 +1.036585 +2.256098
8371231 +1.010742 -0.010254 +0.028320 -3.719512 +0.853659 +1.890244
8371233 +1.006836 -0.008789 +0.021973 -3.841464 +0.975610 +1.768293
8371235 +1.013184 -0.004395 +0.023438 -3.841464 +0.792683 +2.378049
8371237 +1.006836 -0.005371 +0.027832 -3.780488 +0.853659 +2.134146
8371239 +1.008301 -0.004395 +0.022949 -3.719512 +0.792683 +2.256098
8371241 +1.007324 -0.004395 +0.031250 -3.780488 +0.853659 +1.951220
8371243 +1.003418 -0.010254 +0.033691 -3.719512 +0.792683 +2.012195
8371245 +1.001953 -0.007324 +0.024902 -3.841464 +0.975610 +2.073171
8371247 +1.003906 -0.007812 +0.029785 -3.719512 +0.914634 +1.951220
8371249 +1.008789 -0.010742 +0.025391 -3.902439 +0.914634 +2.012195
8371251 +1.003906 -0.003906 +0.031738 -3.780488 +0.914634 +2.195122
8371253 +1.003906 -0.009766 +0.036133 -3.780488 +0.975610 +2.012195
8371255 +1.002441 -0.010742 +0.027344 -3.780488 +0.731707 +2.195122
8371257 +1.003418 -0.011719 +0.028320 -3.902439 +0.853659 +2.256098
8371259 +1.001465 -0.003418 +0.030762 -3.658537 +0.914634 +1.951220
8371261 +1.009766 -0.012695 +0.029297 -3.780488 +0.853659 +2.073171
8371263 +1.009766 -0.003418 +0.025391 -3.841464 +0.792683 +2.012195
8371265 +1.010254 -0.007324 +0.032227 -3.780488 +0.975610 +2.195122
8371267 +1.007324 -0.005859 +0.032715 -3.597561 +0.853659 +1.951220
8371269 +1.009277 -0.009766 +0.038574 -3.841464 +0.914634 +2.134146
8371271 +1.006836 -0.004883 +0.033691 -3.902439 +0.792683 +1.951220
8371273 +1.004395 -0.001465 +0.024414 -3.841464 +0.853659 +2.195122
8371275 +1.007812 -0.009766 +0.037598 -3.780488 +0.914634 +2.012195
8371277 +1.004883 -0.007812 +0.024902 -3.841464 +0.792683 +2.134146
8371279 +1.012695 -0.008789 +0.024414 -3.963415 +0.792683 +2.134146
8371281 +1.008789 -0.004883 +0.035645 -3.902439 +0.914634 +1.768293
8371283 +1.007812 -0.005371 +0.036621 -3.841464 +0.914634 +2.195122
8371285 +1.004883 -0.007324 +0.027832 -3.780488 +0.609756 +2.195122
8371287 +1.008789 -0.007324 +0.022949 -3.841464 +0.914634 +1.890244
8371289 +1.004883 -0.003906 +0.024414 -3.902439 +0.853659 +2.012195
8371291 +1.002441 -0.010742 +0.028320 -3.780488 +0.914634 +1.890244
8371293 +1.007324 -0.005371 +0.031738 -3.719512 +0.792683 +2.012195
8371295 +1.008301 -0.011230 +0.029297 -3.841464 +0.853659 +2.195122
8371297 +1.013672 -0.006836 +0.031738 -3.780488 +0.853659 +2.073171
8371299 +1.007324 -0.007324 +0.029297 -3.841464 +0.792683 +2.134146
8371301 +1.006348 -0.007324 +0.027832 -3.963415 +0.914634 +2.073171
8371303 +1.010742 -0.004883 +0.033203 -3.719512 +0.853659 +2.012195
8371305 +1.005859 -0.007324 +0.032715 -3.780488 +0.731707 +2.134146
8371307 +1.006348 -0.010742 +0.026855 -3.841464 +0.792683 +2.073171
8371309 +1.011230 -0.005859 +0.035645 -3.841464 +0.792683 +2.073171
8371311 +1.005371 -0.007324 +0.033203 -3.780488 +0.975610 +2.073171
8371313 +1.001953 -0.002441 +0.025391 -3.902439 +0.975610 +2.134146
8371315 +1.004395 -0.003418 +0.019531 -3.841464 +0.914634 +2.012195
8371317 +1.001465 -0.008301 +0.025879 -3.963415 +1.036585 +2.134146
8371319 +1.006836 -0.001953 +0.027832 -3.780488 +0.914634 +2.317073
8371321 +1.007812 -0.004883 +0.027344 -3.780488 +0.914634 +2.073171
8371323 +1.010254 -0.003418 +0.032715 -3.902439 +0.853659 +1.951220
8371325 +1.004395 -0.007324 +0.035156 -3.780488 +0.853659 +2.134146
8371327 +1.010742 -0.009766 +0.031738 -3.841464 +0.975610 +1.890244
8371329 +1.001465 -0.005859 +0.027832 -3.841464 +0.975610 +1.951220
8371331 +1.006836 +0.000977 +0.033203 -3.780488 +0.731707 +2.195122
8371333 +1.005859 -0.004883 +0.030273 -3.841464 +1.097561 +2.195122
8371335 +1.010254 -0.007812 +0.028809 -3.719512 +1.036585 +2.073171
8371337 +1.004395 -0.004883 +0.032227 -3.902439 +0.914634 +2.012195
8371339 +1.007324 -0.007324 +0.031738 -3.841464 +0.792683 +2.256098
8371341 +1.008789 -0.005859 +0.031250 -3.841464 +0.853659 +2.134146
8371343 +1.009277 -0.008789 +0.032227 -3.719512 +0.914634 +2.134146
8371345 +1.007812 -0.005859 +0.024414 -3.780488 +1.036585 +2.134146
8371347 +1.011719 -0.005371 +0.020996 -3.719512 +1.036585 +2.195122
8371349 +1.007324 -0.010254 +0.036133 -3.841464 +0.853659 +2.073171
8371351 +1.012207 -0.002930 +0.028320 -3.841464 +0.853659 +2.073171
8371353 +1.004883 -0.004395 +0.032227 -3.719512 +0.975610 +2.195122
8371355 +1.008789 -0.007324 +0.029785 -3.902439 +1.036585 +2.073171
8371357 +1.008789 -0.002441 +0.039062 -3.841464 +1.036585 +2.012195
8371359 +1.008789 -0.013672 +0.029297 -3.841464 +0.853659 +2.012195
8371361 +1.001465 -0.004883 +0.030762 -3.780488 +0.853659 +1.829268
8371363 +1.002441 -0.009766 +0.025391 -3.780488 +0.731707 +2.012195
8371366 +1.010254 -0.008301 +0.039551 -3.780488 +0.853659 +2.073171
8371368 +1.013672 -0.008789 +0.033203 -3.780488 +0.975610 +2.134146
8371370 +1.004395 -0.008789 +0.025391 -3.780488 +0.792683 +2.195122
8371372 +1.005371 -0.007324 +0.029297 -3.780488 +0.792683 +2.073171
8371374 +1.010742 -0.002930 +0.027344 -3.841464 +0.792683 +1.890244
8371376 +1.011230 -0.005371 +0.026855 -3.963415 +0.853659 +2.073171
8371378 +1.005371 -0.009766 +0.022949 -3.780488 +0.914634 +2.012195
8371380 +1.012695 -0.012695 +0.028320 -3.658537 +0.853659 +2.195122
8371382 +1.004883 -0.002930 +0.035156 -3.902439 +0.792683 +2.073171
8371384 +1.008301 -0.000977 +0.027832 -3.719512 +0.792683 +2.012195
8371386 +1.004395 -0.005859 +0.028320 -3.780488 +0.853659 +2.256098
8371388 +1.004883 -0.006836 +0.023926 -4.024390 +0.914634 +2.073171
8371390 +1.001465 -0.006836 +0.023926 -3.841464 +0.670732 +2.134146
8371392 +1.003906 -0.012695 +0.026367 -3.841464 +0.975610 +2.073171
8371394 +1.008789 -0.007324 +0.038574 -3.841464 +0.792683 +1.707317
8371396 +1.002930 -0.006348 +0.034668 -3.841464 +0.975610 +2.073171
8371398 +1.006348 -0.009277 +0.028809 -3.780488 +0.914634 +2.317073
8371400 +1.010742 -0.011230 +0.030273 -3.841464 +0.975610 +2.073171
8371402 +1.003418 -0.004883 +0.019531 -3.780488 +0.792683 +2.073171
8371404 +1.005859 -0.005859 +0.021484 -3.963415 +0.914634 +2.134146
8371406 +1.007812 -0.010742 +0.024902 -3.719512 +0.914634 +2.195122
8371408 +1.003418 -0.010742 +0.024902 -3.841464 +0.853659 +2.256098
8371410 +1.008301 -0.002441 +0.037109 -3.841464 +0.914634 +1.890244
8371412 +1.017090 -0.007812 +0.022461 -3.780488 +0.853659 +2.134146
8371414 +1.004883 -0.007812 +0.029297 -3.841464 +0.853659 +2.256098
8371416 +1.008301 -0.009766 +0.024414 -3.902439 +0.792683 +2.256098
8371418 +1.006836 -0.003418 +0.031738 -3.841464 +0.975610 +2.134146
8371420 +1.006348 -0.005859 +0.026855 -3.841464 +0.792683 +2.012195
8371422 +1.005859 -0.011719 +0.026855 -3.841464 +0.975610 +2.195122
8371424 +1.005371 -0.006836 +0.033203 -3.902439 +0.792683 +2.195122
8371426 +1.007324 -0.004395 +0.033203 -3.963415 +0.975610 +2.012195
8371428 +1.002441 -0.011719 +0.021973 -3.658537 +0.853659 +2.073171
8371430 +1.007324 -0.002930 +0.026855 -3.841464 +0.670732 +2.317073
8371432 +1.007812 -0.005371 +0.031250 -3.719512 +0.792683 +2.134146
8371434 +1.006348 -0.004883 +0.027832 -3.719512 +0.853659 +2.256098
8371436 +1.007324 +0.000488 +0.028809 -3.841464 +0.975610 +2.195122
8371438 +1.010254 -0.005371 +0.029297 -3.902439 +0.975610 +2.256098
8371440 +1.004883 -0.005859 +0.025391 -3.841464 +0.975610 +1.951220
8371442 +1.005371 -0.009766 +0.020020 -3.719512 +0.914634 +2.073171
8371444 +1.009766 -0.009277 +0.027344 -3.780488 +0.853659 +2.134146
8371446 +1.002441 +0.005371 +0.030762 -3.780488 +0.792683 +2.256098
8371448 +1.004883 -0.009277 +0.027344 -3.902439 +0.975610 +2.256098
8371450 +1.005371 -0.005371 +0.029297 -3.841464 +0.853659 +2.134146
8371452 +1.007324 -0.005371 +0.031250 -3.719512 +1.158537 +2.195122
8371454 +1.006348 -0.008301 +0.030273 -3.902439 +0.792683 +2.134146
8371456 +1.008301 -0.005859 +0.029297 -3.780488 +0.914634 +2.012195
8371458 +1.005859 -0.007324 +0.033691 -3.902439 +0.792683 +2.195122
8371460 +1.003418 -0.003906 +0.038574 -3.719512 +0.853659 +2.073171
8371462 +1.008301 -0.001465 +0.038574 -3.780488 +0.914634 +2.012195
8371464 +1.006348 -0.006348 +0.041992 -3.719512 +1.036585 +2.012195
8371466 +1.007812 -0.008301 +0.022461 -3.719512 +0.914634 +2.012195
8371468 +1.003418 -0.008789 +0.033203 -3.841464 +0.853659 +2.256098
8371470 +1.006836 -0.003906 +0.035645 -3.719512 +0.670732 +2.195122
8371472 +1.003906 -0.010254 +0.028809 -3.841464 +0.731707 +2.012195
8371474 +1.000488 -0.002930 +0.032227 -3.841464 +0.975610 +2.073171
8371476 +1.002441 -0.010254 +0.025391 -3.841464 +0.731707 +2.073171
8371478 +1.004883 -0.002930 +0.032715 -3.780488 +0.853659 +2.012195
8371480 +1.008301 -0.009766 +0.028320 -3.719512 +1.036585 +2.317073
8371482 +1.009277 -0.006348 +0.034180 -3.780488 +0.975610 +2.012195
8371484 +1.012207 -0.004395 +0.019531 -3.658537 +0.792683 +2.134146
8371486 +1.008789 -0.004395 +0.031738 -3.780488 +0.975610 +1.951220
8371488 +1.003906 -0.007324 +0.033203 -3.902439 +0.975610 +2.012195
8371490 +1.007812 -0.010254 +0.033691 -3.658537 +0.914634 +2.012195
8371492 +1.004395 -0.003906 +0.034180 -3.841464 +0.853659 +2.256098
8371494 +1.008789 -0.002930 +0.028809 -3.719512 +0.914634 +2.195122
8371496 +1.008301 -0.010254 +0.027344 -3.902439 +0.792683 +2.012195
8371498 +1.009277 -0.008301 +0.021484 -3.780488 +0.792683 +1.951220
8371500 +1.001953 -0.002930 +0.034668 -3.658537 +0.914634 +2.134146
8371502 +1.005859 -0.010742 +0.030762 -3.902439 +0.975610 +2.073171
8371504 +1.003906 -0.010254 +0.032715 -3.841464 +0.853659 +2.134146
8371506 +1.010742 -0.011230 +0.023438 -3.780488 +0.914634 +2.134146
8371508 +1.007324 -0.005859 +0.036133 -3.902439 +0.975610 +2.012195
8371510 +1.007324 -0.009766 +0.027832 -3.963415 +0.975610 +2.073171
8371512 +1.010254 -0.005371 +0.025879 -3.902439 +0.731707 +2.134146
8371514 +1.004883 -0.009277 +0.036133 -3.719512 +0.853659 +2.195122
8371516 +1.003906 -0.006348 +0.028809 -3.841464 +0.914634 +2.195122
8371518 +1.000977 -0.014160 +0.020020 -3.780488 +0.914634 +2.073171
8371520 +1.001465 -0.002441 +0.033691 -3.963415 +0.792683 +2.134146
8371522 +1.009277 -0.004395 +0.028320 -3.780488 +1.097561 +2.073171
8371524 +1.011719 -0.006348 +0.022949 -3.780488 +0.670732 +2.134146
8371526 +1.006348 -0.006836 +0.024902 -3.719512 +0.853659 +2.073171
8371528 +1.007324 -0.007324 +0.028320 -3.902439 +0.792683 +2.134146
8371530 +1.001465 -0.014648 +0.033691 -3.780488 +0.792683 +2.073171
8371532 +1.010254 -0.001953 +0.028809 -3.841464 +0.853659 +2.073171
8371534 +1.009766 -0.005859 +0.036133 -3.902439 +0.731707 +2.073171
8371536 +1.005859 -0.004883 +0.031250 -3.780488 +0.731707 +2.073171
8371538 +1.008789 -0.007324 +0.033691 -3.780488 +1.036585 +2.012195
8371540 +1.010254 -0.003418 +0.033203 -3.780488 +0.914634 +2.012195
8371542 +1.008301 -0.009277 +0.036621 -3.780488 +0.853659 +2.073171
8371544 +1.007812 -0.005371 +0.025391 -3.902439 +1.036585 +2.012195
8371546 +1.010254 -0.006348 +0.031250 -3.719512 +0.853659 +2.195122
8371548 +1.009766 -0.001465 +0.030762 -3.780488 +0.975610 +2.134146
8371550 +1.010742 -0.002441 +0.035156 -3.963415 +0.914634 +1.951220
8371552 +1.005859 -0.004395 +0.032227 -3.780488 +0.914634 +1.829268
8371554 +1.010742 -0.005859 +0.027832 -3.841464 +0.975610 +2.012195
8371556 +1.002930 -0.008789 +0.031738 -3.902439 +0.914634 +2.195122
8371558 +1.009277 -0.009766 +0.021484 -3.902439 +0.914634 +1.890244
8371560 +1.008301 -0.011719 +0.027832 -3.841464 +0.853659 +2.195122
8371562 +1.003418 -0.007812 +0.034180 -3.963415 +0.914634 +2.012195
8371564 +1.004883 -0.008301 +0.026855 -3.719512 +1.036585 +2.256098
8371566 +1.003906 -0.002441 +0.021484 -3.841464 +0.792683 +2.317073
8371568 +1.007812 -0.008301 +0.035645 -3.780488 +0.853659 +2.134146
8371570 +1.007324 -0.005859 +0.033203 -3.780488 +0.914634 +2.134146
8371572 +1.006836 -0.010254 +0.035156 -3.780488 +1.036585 +2.073171
8371574 +1.008301 -0.007324 +0.034668 -3.780488 +0.792683 +1.951220
8371576 +1.007324 -0.006836 +0.033203 -3.841464 +0.853659 +2.134146
8371578 +1.005371 -0.003906 +0.028320 -3.841464 +0.975610 +2.073171
8371580 +1.006836 +0.003418 +0.035156 -3.963415 +0.914634 +2.012195
8371582 +1.009766 -0.008301 +0.036133 -3.841464 +0.914634 +2.134146
8371584 +1.000000 -0.005371 +0.039062 -3.658537 +0.853659 +2.195122
8371587 +1.002930 -0.002930 +0.031738 -3.902439 +0.853659 +2.256098
8371589 +1.006836 -0.008789 +0.026855 -3.841464 +0.853659 +2.378049
8371591 +1.005859 -0.004395 +0.031738 -3.841464 +0.975610 +1.951220
8371593 +1.003418 -0.005371 +0.022461 -3.780488 +0.975610 +2.012195
8371595 +1.008301 -0.009766 +0.025879 -3.902439 +0.975610 +2.195122
8371597 +1.008301 -0.007324 +0.026855 -3.841464 +0.975610 +2.073171
8371599 +1.009766 -0.006348 +0.027344 -3.841464 +0.792683 +2.256098
8371601 +1.007812 -0.003906 +0.021973 -3.841464 +1.036585 +2.134146
8371603 +1.006348 -0.012207 +0.028320 -3.902439 +0.975610 +2.134146
8371605 +1.006836 -0.008301 +0.040527 -3.719512 +0.670732 +1.951220
8371607 +1.003418 -0.008301 +0.028809 -3.719512 +1.036585 +2.134146
8371609 +1.001465 -0.014160 +0.024902 -3.841464 +0.914634 +1.951220
8371611 +1.009766 -0.006836 +0.032227 -3.841464 +0.853659 +1.890244
8371613 +1.006348 -0.012207 +0.035156 -3.719512 +0.792683 +2.134146
8371615 +1.000977 -0.007324 +0.035645 -3.902439 +1.036585 +2.073171
8371617 +1.008789 -0.003906 +0.028809 -3.841464 +0.731707 +2.256098
8371619 +1.004883 -0.006348 +0.027832 -3.658537 +0.792683 +2.073171
8371621 +1.009766 -0.010742 +0.027832 -3.902439 +0.975610 +2.134146
8371623 +1.011230 -0.010254 +0.034668 -3.780488 +0.731707 +2.378049
8371625 +1.005859 -0.005859 +0.033203 -3.780488 +0.914634 +2.195122
8371627 +1.006836 -0.010742 +0.029297 -3.780488 +0.975610 +1.951220
8371629 +1.011230 -0.004883 +0.027832 -3.780488 +0.853659 +2.256098
8371631 +1.006836 -0.009766 +0.025879 -3.902439 +0.914634 +2.134146
8371633 +1.005859 -0.010742 +0.024902 -3.780488 +0.853659 +2.195122
8371635 +1.004883 -0.003906 +0.028320 -3.841464 +0.853659 +2.256098
8371637 +1.003906 -0.009766 +0.033203 -3.780488 +0.853659 +2.195122
8371639 +1.008789 -0.005859 +0.029785 -3.963415 +0.975610 +2.256098
8371641 +1.006836 -0.004395 +0.034180 -3.902439 +0.792683 +2.195122
8371643 +1.003906 -0.010742 +0.033203 -3.841464 +0.792683 +2.073171
8371645 +1.003418 -0.011230 +0.024414 -3.902439 +0.914634 +2.134146
8371647 +1.007324 -0.007324 +0.029785 -3.841464 +0.792683 +2.073171
8371649 +1.004395 -0.006836 +0.027832 -3.902439 +0.853659 +2.073171
8371651 +1.005371 -0.005859 +0.034668 -3.780488 +0.914634 +2.073171
8371653 +1.007812 -0.005859 +0.028809 -3.963415 +0.914634 +2.012195
8371655 +1.002441 -0.008789 +0.024414 -3.780488 +0.853659 +2.073171
8371657 +1.004883 -0.006348 +0.031250 -3.719512 +1.036585 +2.012195
8371659 +1.009766 -0.004395 +0.039062 -3.658537 +0.853659 +2.012195
8371661 +1.008301 -0.008301 +0.032715 -3.841464 +0.853659 +2.012195
8371663 +1.011230 -0.004395 +0.029785 -3.963415 +0.914634 +2.073171
8371665 +1.009766 -0.007812 +0.023926 -3.719512 +0.853659 +2.012195
8371667 +1.008301 -0.005859 +0.031250 -3.780488 +0.792683 +2.073171
8371669 +1.010254 -0.006348 +0.024902 -3.719512 +0.853659 +2.073171
8371671 +1.003418 -0.009766 +0.026855 -3.719512 +0.731707 +2.317073
8371673 +1.006836 -0.009277 +0.030762 -3.902439 +0.853659 +2.378049
8371675 +1.010742 -0.006836 +0.029785 -3.719512 +0.914634 +2.134146
8371677 +1.008789 -0.007324 +0.027832 -3.780488 +0.914634 +2.073171
8371679 +1.007324 -0.011230 +0.031738 -3.902439 +1.036585 +2.317073
8371681 +1.006348 -0.007324 +0.030762 -3.841464 +0.914634 +2.012195
8371683 +1.012695 -0.001465 +0.026367 -3.841464 +0.731707 +2.134146
8371685 +1.006836 -0.009277 +0.026367 -3.841464 +0.975610 +2.134146
8371687 +1.007812 -0.007812 +0.035645 -3.963415 +0.731707 +2.012195
8371689 +1.004395 -0.006836 +0.031250 -3.902439 +0.914634 +2.012195
8371691 +1.006836 -0.001465 +0.029785 -3.902439 +0.914634 +2.012195
8371693 +1.004395 -0.008301 +0.039551 -3.902439 +0.731707 +2.073171
8371695 +1.003906 -0.008301 +0.032227 -3.780488 +0.731707 +2.134146
8371697 +1.008789 -0.008301 +0.025879 -3.658537 +0.853659 +2.134146
8371699 +1.010742 -0.006348 +0.013672 -3.719512 +0.609756 +2.012195
8371701 +1.008301 -0.010742 +0.034180 -3.719512 +0.914634 +2.012195
8371703 +1.005371 -0.009277 +0.030273 -3.780488 +0.853659 +2.012195
8371705 +1.003418 -0.004883 +0.037109 -3.719512 +0.914634 +2.134146
8371707 +1.006836 -0.011230 +0.028809 -3.780488 +0.914634 +2.012195
8371709 +1.008789 -0.004883 +0.032715 -3.780488 +0.853659 +1.951220
8371711 +1.009277 -0.006348 +0.024902 -4.024390 +0.914634 +2.317073
8371713 +1.011719 -0.007324 +0.027344 -3.902439 +0.975610 +2.073171
8371715 +1.008301 -0.003418 +0.021484 -3.902439 +0.792683 +2.134146
8371717 +1.011719 +0.000000 +0.041504 -3.719512 +0.914634 +2.256098
8371719 +1.004883 -0.006348 +0.032227 -3.902439 +0.731707 +2.012195
8371721 +1.006348 -0.009277 +0.029785 -3.719512 +0.792683 +2.073171
8371723 +1.007812 -0.005859 +0.022949 -3.841464 +0.975610 +2.012195
8371725 +1.011719 +0.000000 +0.029785 -3.841464 +0.853659 +2.012195
8371727 +1.008789 -0.005859 +0.035645 -3.902439 +0.975610 +2.073171
8371729 +1.007812 -0.005371 +0.025391 -3.841464 +0.853659 +2.073171
8371731 +1.004883 -0.009766 +0.036133 -3.719512 +0.914634 +2.073171
8371733 +1.004395 -0.002930 +0.028809 -3.780488 +0.731707 +1.951220
8371735 +1.013672 -0.003906 +0.028809 -3.841464 +1.036585 +2.256098
8371737 +1.006348 -0.007812 +0.039551 -3.780488 +0.914634 +2.256098
8371739 +1.010254 -0.004883 +0.023926 -3.780488 +0.914634 +2.012195
8371741 +1.007324 -0.004883 +0.026855 -3.841464 +0.914634 +2.012195
8371743 +1.009766 -0.008789 +0.020020 -3.780488 +0.914634 +2.134146
8371745 +1.010742 -0.012695 +0.030273 -3.719512 +0.975610 +2.012195
8371747 +1.006836 -0.009277 +0.029297 -3.780488 +1.036585 +2.195122
8371749 +1.007812 -0.007324 +0.032715 -3.902439 +0.731707 +2.134146
8371751 +1.000488 -0.012207 +0.035645 -3.780488 +0.853659 +2.073171
8371753 +1.007812 -0.007324 +0.039062 -3.719512 +0.853659 +2.195122
8371755 +1.007812 -0.007324 +0.021484 -3.780488 +1.036585 +2.012195
8371757 +1.009277 -0.000488 +0.026855 -3.780488 +0.975610 +1.951220
8371759 +1.008789 -0.004883 +0.035156 -3.719512 +1.036585 +2.134146
8371761 +1.008789 -0.010254 +0.026855 -3.719512 +0.731707 +1.951220
8371763 +1.004395 -0.007324 +0.023926 -3.902439 +0.853659 +2.195122
8371765 +1.005371 -0.007812 +0.028320 -3.841464 +0.975610 +2.073171
8371767 +1.001953 -0.008301 +0.037598 -3.780488 +0.914634 +2.012195
8371769 +1.010742 -0.011230 +0.029297 -3.902439 +1.036585 +2.012195
8371771 +1.000977 -0.009277 +0.021484 -3.841464 +0.975610 +1.768293
8371773 +1.006348 -0.007812 +0.023438 -3.780488 +0.792683 +2.134146
8371775 +1.010742 -0.012695 +0.031738 -3.780488 +0.914634 +2.134146
8371777 +1.016602 -0.006348 +0.032715 -3.841464 +0.975610 +1.890244
8371779 +1.010254 -0.007324 +0.035156 -3.780488 +0.853659 +2.256098
8371781 +1.006348 -0.002441 +0.023438 -3.780488 +0.792683 +1.890244
8371783 +1.004395 -0.007324 +0.030273 -3.841464 +0.792683 +2.134146
8371785 +1.006836 -0.004395 +0.024414 -3.902439 +0.853659 +2.317073
8371787 +1.006836 -0.010742 +0.028809 -3.597561 +0.975610 +2.012195
8371789 +1.012695 -0.014648 +0.020508 -3.841464 +0.731707 +2.073171
8371791 +1.001953 -0.002441 +0.027832 -3.902439 +0.914634 +2.073171
8371793 +1.004395 -0.004395 +0.028809 -3.841464 +0.975610 +2.073171
8371795 +1.012207 -0.004883 +0.031738 -3.841464 +0.914634 +2.256098
8371797 +1.010742 -0.009277 +0.032227 -3.780488 +0.792683 +2.195122
8371799 +1.007324 -0.003906 +0.024414 -3.841464 +0.975610 +2.256098
8371801 +1.008789 -0.008301 +0.019043 -3.841464 +0.975610 +1.890244
8371803 +1.011719 -0.008789 +0.024902 -3.719512 +0.792683 +2.195122
8371805 +1.006348 -0.007324 +0.031738 -3.780488 +0.975610 +2.073171
8371808 +1.010742 -0.007812 +0.035156 -3.841464 +0.792683 +2.073171
8371810 +1.007812 -0.007812 +0.025879 -3.841464 +0.853659 +1.951220
8371812 +1.007812 -0.007812 +0.033691 -3.719512 +0.853659 +2.073171
8371814 +1.001465 -0.007324 +0.030273 -3.841464 +0.853659 +2.073171
8371816 +1.015625 -0.004883 +0.028320 -3.841464 +0.853659 +1.951220
8371818 +1.007812 -0.009766 +0.034668 -3.902439 +0.853659 +2.439024
8371820 +1.006836 -0.007812 +0.036621 -3.841464 +0.731707 +2.012195
8371822 +1.003418 -0.004395 +0.028809 -3.841464 +0.914634 +2.195122
8371824 +1.001465 -0.004883 +0.029297 -3.841464 +0.731707 +2.134146
8371826 +1.002441 -0.004395 +0.028809 -3.841464 +0.914634 +2.195122
8371828 +1.007324 -0.007812 +0.030762 -3.719512 +0.914634 +2.134146
8371830 +1.006348 -0.007324 +0.020020 -3.780488 +0.914634 +2.012195
8371832 +1.002930 -0.006836 +0.031738 -3.841464 +0.792683 +1.951220
8371834 +1.006348 -0.004395 +0.027832 -3.780488 +0.853659 +2.134146
8371836 +1.004883 -0.007812 +0.026367 -3.841464 +0.975610 +2.012195
8371838 +1.005371 -0.005859 +0.028320 -3.780488 +0.853659 +2.134146
8371840 +1.006836 -0.005859 +0.026855 -3.658537 +0.914634 +2.134146
8371842 +1.007812 -0.006348 +0.028809 -3.780488 +0.914634 +1.951220
8371844 +1.006836 -0.004883 +0.032715 -3.902439 +0.853659 +1.890244
8371846 +1.003906 +0.000000 +0.026367 -3.780488 +0.914634 +2.195122
8371848 +1.006348 -0.007324 +0.028320 -3.780488 +0.731707 +1.890244
8371850 +1.004883 -0.009277 +0.030762 -3.902439 +0.914634 +2.134146
8371852 +1.008301 -0.005371 +0.028320 -3.719512 +0.731707 +2.317073
8371854 +1.013184 -0.007324 +0.035156 -3.719512 +0.914634 +2.073171
8371856 +1.006348 -0.008789 +0.027344 -3.841464 +0.792683 +2.073171
8371858 +1.003418 -0.002930 +0.030762 -3.841464 +0.975610 +1.951220
8371860 +1.006348 -0.005859 +0.029785 -3.902439 +0.670732 +2.195122
8371862 +1.002930 -0.001953 +0.030273 -3.963415 +0.914634 +2.195122
8371864 +1.006836 -0.002930 +0.031250 -3.963415 +0.975610 +2.012195
8371866 +1.007324 -0.009277 +0.027832 -3.902439 +0.914634 +2.012195
8371868 +1.009277 -0.008301 +0.031738 -3.963415 +0.914634 +2.134146
8371870 +1.010742 +0.000000 +0.031250 -3.841464 +1.036585 +2.256098
8371872 +1.008789 -0.004395 +0.026367 -3.780488 +0.914634 +2.256098
8371874 +1.007812 -0.006348 +0.028320 -3.841464 +0.609756 +2.195122
8371876 +1.003906 -0.008301 +0.025879 -3.902439 +1.219512 +2.012195
8371878 +1.009766 -0.001465 +0.029297 -3.902439 +1.036585 +2.134146
8371880 +1.009766 -0.003906 +0.028809 -3.719512 +0.731707 +2.256098
8371882 +1.006348 -0.009277 +0.036621 -3.902439 +0.731707 +1.951220
8371884 +1.005859 -0.006836 +0.031738 -3.841464 +0.670732 +2.317073
8371886 +1.006836 -0.008301 +0.021484 -3.719512 +0.853659 +2.012195
8371888 +1.007812 -0.004883 +0.035156 -3.902439 +0.853659 +2.256098
8371890 +1.006348 -0.005859 +0.036621 -3.841464 +0.853659 +2.073171
8371892 +1.008789 -0.010742 +0.034668 -3.841464 +0.914634 +2.012195
8371894 +1.004395 -0.007324 +0.030762 -3.902439 +0.792683 +2.073171
8371896 +1.004395 -0.006348 +0.029297 -3.658537 +0.792683 +2.012195
8371898 +1.000977 -0.010254 +0.026367 -3.658537 +1.036585 +2.012195
8371900 +1.010742 -0.008301 +0.028320 -3.780488 +0.853659 +2.195122
8371902 +1.004883 -0.010742 +0.035645 -3.658537 +0.853659 +2.073171
8371904 +1.003906 -0.009766 +0.027832 -3.780488 +0.670732 +2.256098
8371906 +1.011230 -0.008789 +0.031250 -3.841464 +0.975610 +1.951220
8371908 +1.007812 -0.007324 +0.028320 -3.963415 +0.853659 +2.256098
8371910 +1.003906 -0.008789 +0.034180 -3.780488 +0.731707 +2.195122
8371912 +1.000488 -0.009277 +0.030273 -3.841464 +0.731707 +2.073171
8371914 +1.004883 -0.009277 +0.031738 -3.902439 +0.792683 +2.195122
8371916 +1.007324 -0.003906 +0.033203 -3.719512 +0.853659 +2.012195
8371918 +1.012207 -0.005859 +0.022461 -3.658537 +1.036585 +2.012195
8371920 +1.012207 -0.009766 +0.009766 -3.597561 +0.914634 +2.256098
8371922 +1.002930 -0.005859 +0.033203 -3.719512 +0.731707 +2.012195
8371924 +1.011230 -0.008301 +0.030273 -3.780488 +0.914634 +2.256098
8371926 +1.008301 -0.007812 +0.028809 -3.780488 +1.036585 +2.256098
8371928 +1.011719 -0.004883 +0.025391 -3.658537 +0.670732 +2.012195
8371930 +1.003418 -0.008301 +0.029297 -3.841464 +0.914634 +1.951220
8371932 +1.003906 -0.009766 +0.030762 -3.780488 +0.914634 +2.195122
8371934 +1.011230 -0.003906 +0.032227 -3.719512 +0.792683 +1.829268
8371936 +1.010742 -0.004883 +0.023926 -3.963415 +0.792683 +2.012195
8371938 +1.008301 -0.008301 +0.027832 -3.902439 +1.036585 +2.073171
8371940 +1.007324 -0.002441 +0.027344 -3.719512 +0.609756 +2.256098
8371942 +1.007812 -0.007812 +0.036133 -3.780488 +0.975610 +2.134146
8371944 +1.007324 -0.004395 +0.023926 -3.841464 +0.975610 +2.073171
8371946 +1.007324 -0.011230 +0.036621 -3.902439 +0.792683 +1.951220
8371948 +1.014648 -0.002441 +0.028320 -3.780488 +0.914634 +1.951220
8371950 +1.004395 -0.002441 +0.026855 -3.841464 +0.853659 +2.073171
8371952 +1.009277 -0.007324 +0.035156 -3.841464 +0.975610 +2.134146
8371954 +1.008789 -0.006348 +0.024902 -3.780488 +0.853659 +2.195122
8371956 +1.006836 -0.001465 +0.024902 -3.902439 +0.731707 +2.195122
8371958 +1.011230 -0.002441 +0.032715 -3.780488 +0.792683 +1.951220
8371960 +1.009766 -0.008789 +0.032715 -3.841464 +0.975610 +2.073171
8371962 +1.008789 -0.005859 +0.022949 -3.780488 +0.853659 +1.951220
8371964 +1.010254 +0.000000 +0.028320 -3.719512 +0.914634 +2.012195
8371966 +1.009766 -0.006836 +0.023438 -3.719512 +1.036585 +1.951220
8371968 +1.005859 -0.003906 +0.032715 -3.780488 +0.914634 +2.195122
8371970 +1.011719 -0.004883 +0.029297 -3.841464 +0.975610 +2.134146
8371972 +1.002930 -0.003906 +0.030273 -3.719512 +0.792683 +1.951220
8371974 +1.009766 -0.003418 +0.033203 -3.780488 +0.975610 +2.256098
8371976 +1.004395 -0.004395 +0.028809 -3.780488 +0.914634 +2.073171
8371978 +1.004395 -0.009277 +0.025879 -3.780488 +1.036585 +2.012195
8371980 +1.004883 -0.002441 +0.033203 -3.841464 +0.853659 +2.256098
8371982 +1.006348 -0.008789 +0.029297 -3.841464 +0.853659 +1.951220
8371984 +1.003418 -0.010254 +0.028809 -3.780488 +0.975610 +2.134146
8371986 +1.010254 -0.002441 +0.024414 -3.841464 +0.670732 +2.256098
8371988 +1.003418 -0.007324 +0.032715 -3.902439 +0.975610 +1.890244
8371990 +1.006836 -0.005371 +0.028809 -3.841464 +0.853659 +2.195122
8371992 +1.007812 -0.008301 +0.033691 -3.719512 +0.670732 +2.134146
8371994 +1.002441 -0.013672 +0.020508 -4.024390 +1.036585 +2.195122
8371996 +1.011719 -0.010742 +0.024414 -3.780488 +0.853659 +2.134146
8371998 +1.010254 -0.007324 +0.020996 -3.719512 +0.792683 +1.951220
8372000 +1.010254 -0.011719 +0.033691 -3.902439 +1.036585 +1.951220
8372002 +1.000488 -0.010254 +0.028809 -3.963415 +0.853659 +2.195122
8372004 +1.004883 -0.006836 +0.023438 -3.658537 +0.914634 +2.317073
8372006 +1.008789 -0.007324 +0.031250 -3.902439 +0.670732 +2.134146
8372008 +1.009766 -0.010254 +0.028809 -3.841464 +0.853659 +2.134146
8372010 +1.007324 -0.011230 +0.027344 -3.658537 +0.731707 +2.073171
8372012 +1.010254 -0.007812 +0.027832 -3.963415 +0.731707 +2.073171
8372014 +1.005859 -0.007812 +0.022949 -3.658537 +0.975610 +2.012195
8372016 +1.004883 -0.009277 +0.033691 -3.719512 +0.975610 +2.195122
8372018 +1.008301 -0.002930 +0.035645 -3.902439 +0.914634 +2.195122
8372020 +1.002930 -0.002930 +0.027832 -3.902439 +0.853659 +1.951220
8372022 +1.003418 -0.006836 +0.024902 -3.780488 +0.975610 +2.073171
8372024 +1.009766 -0.005859 +0.029297 -3.841464 +0.792683 +2.134146
8372026 +1.001465 -0.004395 +0.028809 -3.841464 +0.792683 +2.134146
8372029 +1.006836 -0.000977 +0.026855 -3.780488 +0.975610 +2.134146
8372031 +1.007812 -0.012207 +0.033691 -3.841464 +0.975610 +2.073171
8372033 +1.003418 -0.009766 +0.022949 -3.780488 +0.792683 +2.134146
8372035 +1.007812 -0.001465 +0.037109 -3.719512 +0.914634 +1.951220
8372037 +1.005371 -0.011719 +0.022949 -3.902439 +0.975610 +2.012195
8372039 +1.007812 -0.005371 +0.026855 -3.902439 +0.853659 +1.890244
8372041 +1.007324 -0.008789 +0.027832 -3.658537 +0.792683 +2.012195
8372043 +1.005371 -0.006836 +0.030762 -3.780488 +0.853659 +2.012195
8372045 +1.008789 -0.007812 +0.024902 -3.841464 +0.975610 +2.073171
8372047 +1.006348 -0.002930 +0.023926 -3.719512 +0.792683 +2.195122
8372049 +1.008301 -0.005859 +0.028320 -3.841464 +0.731707 +2.073171
8372051 +1.007324 -0.006348 +0.019531 -3.841464 +0.792683 +1.890244
8372053 +1.003418 -0.008789 +0.026367 -3.780488 +0.914634 +2.012195
8372055 +1.009766 -0.003418 +0.022461 -3.719512 +0.853659 +2.134146
8372057 +1.005859 -0.003418 +0.029785 -3.780488 +0.853659 +2.073171
8372059 +1.013672 -0.003418 +0.028809 -3.902439 +0.975610 +2.134146
8372061 +1.007324 -0.010742 +0.035645 -3.902439 +0.914634 +2.012195
8372063 +1.002930 -0.012207 +0.026367 -3.841464 +0.975610 +2.439024
8372065 +1.005371 -0.008301 +0.027344 -3.841464 +0.792683 +2.134146
8372067 +1.010742 -0.003906 +0.032227 -3.658537 +0.975610 +2.134146
8372069 +1.009277 -0.003906 +0.027832 -3.902439 +0.914634 +2.195122
8372071 +1.005371 -0.001953 +0.032715 -3.780488 +0.792683 +2.073171
8372073 +1.006348 -0.007812 +0.028809 -3.780488 +0.853659 +1.890244
8372075 +1.010742 -0.011230 +0.036621 -3.902439 +0.853659 +2.195122
8372077 +1.003418 -0.001953 +0.023438 -3.719512 +0.914634 +1.951220
8372079 +1.009766 -0.008789 +0.026855 -3.963415 +0.792683 +2.073171
8372081 +1.000977 -0.004883 +0.041992 -3.719512 +1.036585 +2.012195
8372083 +1.006348 -0.006836 +0.027344 -3.780488 +0.975610 +2.134146
8372085 +1.008789 -0.003906 +0.031738 -3.841464 +1.036585 +2.317073
8372087 +1.011719 -0.007812 +0.023438 -3.841464 +0.914634 +2.195122
8372089 +1.005859 -0.007812 +0.022949 -3.963415 +0.914634 +2.134146
8372091 +1.006348 -0.010254 +0.030762 -3.780488 +0.853659 +2.256098
8372093 +1.010742 -0.012207 +0.030273 -3.780488 +0.914634 +2.134146
8372095 +1.010742 -0.003418 +0.027344 -3.780488 +0.731707 +2.134146
8372097 +1.008789 -0.007324 +0.033203 -3.780488 +1.036585 +2.012195
8372099 +1.007812 -0.012695 +0.031738 -3.841464 +0.975610 +1.890244
8372101 +1.007324 -0.003418 +0.030762 -3.780488 +1.036585 +2.378049
8372103 +1.008301 -0.007812 +0.020996 -3.780488 +0.853659 +2.195122
8372105 +1.003906 -0.005371 +0.027832 -3.841464 +0.853659 +2.012195
8372107 +1.000488 -0.008301 +0.030762 -3.719512 +0.853659 +1.951220
8372109 +1.008301 +0.000000 +0.030762 -3.841464 +0.853659 +2.134146
8372111 +1.011230 -0.012695 +0.035156 -3.902439 +0.975610 +2.134146
8372113 +1.007324 -0.007324 +0.022461 -3.780488 +0.975610 +2.134146
8372115 +1.005371 -0.006836 +0.025391 -3.902439 +0.853659 +2.073171
8372117 +1.008301 -0.010742 +0.024902 -3.963415 +0.975610 +2.012195
8372119 +1.007324 -0.007812 +0.031250 -3.841464 +0.731707 +2.134146
8372121 +1.015137 -0.008789 +0.032715 -3.658537 +1.036585 +2.073171
8372123 +1.007324 -0.009766 +0.022949 -3.902439 +0.914634 +2.073171
8372125 +1.000000 -0.007324 +0.023926 -3.841464 +0.853659 +2.012195
8372127 +1.006348 -0.010254 +0.025879 -3.780488 +0.914634 +1.951220
8372129 +1.009766 -0.009766 +0.025391 -3.963415 +0.731707 +2.134146
8372131 +1.009277 -0.007812 +0.021484 -3.780488 +0.975610 +2.195122
8372133 +1.004883 -0.007324 +0.024414 -3.719512 +1.036585 +2.012195
8372135 +1.005371 -0.008301 +0.033691 -3.841464 +0.792683 +2.195122
8372137 +1.005859 -0.006348 +0.024414 -3.780488 +0.853659 +2.012195
8372139 +1.005371 -0.010254 +0.035156 -3.658537 +0.853659 +2.134146
8372141 +1.003418 -0.012207 +0.026367 -3.841464 +0.792683 +2.012195
8372143 +1.006348 -0.006348 +0.026367 -3.719512 +0.914634 +2.012195
8372145 +1.009766 -0.003418 +0.020020 -3.963415 +0.975610 +2.073171
8372147 +1.002930 -0.005859 +0.027832 -3.841464 +0.975610 +2.256098
8372149 +1.009277 -0.006836 +0.030273 -3.719512 +0.731707 +2.012195
8372151 +1.007324 -0.010742 +0.024902 -3.902439 +0.792683 +2.012195
8372153 +1.002930 -0.003906 +0.032715 -3.963415 +0.853659 +2.134146
8372155 +1.004883 -0.004883 +0.025391 -3.841464 +0.792683 +2.195122
8372157 +1.007324 -0.006836 +0.029785 -3.780488 +0.975610 +2.195122
8372159 +1.004395 -0.006348 +0.030273 -3.841464 +0.914634 +2.195122
8372161 +1.007324 -0.005371 +0.033203 -3.780488 +0.853659 +2.073171
8372163 +1.008301 -0.002441 +0.035645 -3.902439 +0.853659 +2.256098
8372165 +1.003418 -0.003418 +0.017578 -3.963415 +1.097561 +1.890244
8372167 +1.007812 -0.010254 +0.044434 -3.719512 +0.853659 +1.829268
8372169 +1.008789 -0.007812 +0.034180 -3.841464 +0.914634 +1.951220
8372171 +1.005371 -0.003906 +0.029297 -3.841464 +0.853659 +1.951220
8372173 +1.008789 +0.002441 +0.032715 -3.719512 +0.975610 +2.134146
8372175 +1.005859 -0.007812 +0.030273 -3.841464 +0.914634 +2.012195
8372177 +1.008301 +0.000488 +0.035645 -3.841464 +0.853659 +2.073171
8372179 +1.008789 -0.005859 +0.025391 -3.780488 +0.975610 +2.073171
8372181 +1.007324 -0.006836 +0.026855 -3.841464 +0.853659 +2.012195
8372183 +1.006836 -0.008301 +0.022461 -3.841464 +0.975610 +2.012195
8372185 +1.010742 -0.007324 +0.030762 -3.658537 +0.792683 +2.134146
8372187 +1.010254 -0.008301 +0.034668 -3.780488 +0.792683 +2.256098
8372189 +1.009277 -0.007812 +0.031738 -3.963415 +0.975610 +2.195122
8372191 +1.007812 -0.002441 +0.028809 -3.780488 +0.792683 +2.134146
8372193 +1.005859 -0.000977 +0.029297 -3.902439 +1.036585 +2.256098
8372195 +1.011719 -0.004395 +0.028809 -3.780488 +0.914634 +2.073171
8372197 +1.009766 -0.004395 +0.024902 -3.841464 +0.914634 +2.134146
8372199 +1.011230 -0.013184 +0.028320 -3.719512 +0.975610 +2.256098
8372201 +1.010254 -0.006836 +0.031250 -3.780488 +0.975610 +1.890244
8372203 +1.008789 -0.005859 +0.027832 -3.780488 +0.792683 +2.134146
8372205 +1.003418 -0.002441 +0.031250 -3.841464 +0.853659 +2.256098
8372207 +1.008789 -0.009766 +0.025391 -3.841464 +0.853659 +2.134146
8372209 +1.012207 -0.006348 +0.023926 -3.719512 +0.853659 +1.829268
8372211 +1.012695 -0.004883 +0.019531 -3.719512 +0.975610 +2.012195
8372213 +1.005859 -0.002930 +0.021973 -3.841464 +0.975610 +2.317073
8372215 +1.010254 -0.003418 +0.028809 -3.780488 +0.914634 +2.073171
8372217 +1.006348 -0.010742 +0.030273 -3.841464 +0.548781 +2.134146
8372219 +1.008789 -0.004883 +0.032715 -3.780488 +0.853659 +2.195122
8372221 +1.005859 -0.004395 +0.030273 -3.719512 +0.914634 +2.073171
8372223 +1.005859 -0.003418 +0.030762 -3.780488 +0.853659 +2.256098
8372225 +1.007812 -0.002930 +0.028320 -3.780488 +0.853659 +2.073171
8372227 +1.011230 -0.004395 +0.030273 -3.719512 +0.914634 +1.951220
8372229 +1.005371 -0.007812 +0.031250 -3.780488 +0.975610 +2.134146
8372231 +1.008301 -0.010254 +0.027344 -3.841464 +0.853659 +2.073171
8372233 +1.007324 -0.004395 +0.028809 -3.902439 +0.975610 +2.256098
8372235 +1.005371 +0.000000 +0.029785 -3.780488 +0.853659 +2.195122
8372237 +1.005371 -0.000977 +0.027344 -3.902439 +1.036585 +2.012195
8372239 +1.000488 -0.008301 +0.027344 -3.780488 +0.975610 +2.134146
8372241 +1.007324 -0.004883 +0.030273 -3.963415 +1.036585 +2.134146
8372243 +1.003418 -0.010742 +0.027344 -3.780488 +0.975610 +1.951220
8372245 +1.007324 -0.004395 +0.034180 -3.902439 +0.853659 +1.890244
8372247 +1.010254 -0.002441 +0.021484 -3.719512 +0.975610 +2.073171
8372250 +1.011719 -0.008789 +0.039062 -3.841464 +0.853659 +1.768293
8372252 +1.003906 -0.001465 +0.029297 -3.902439 +1.036585 +2.073171
8372254 +1.005859 -0.008301 +0.025879 -3.658537 +1.036585 +2.073171
8372256 +1.002930 +0.000977 +0.029297 -3.902439 +0.670732 +2.256098
8372258 +1.006836 -0.008789 +0.031250 -3.841464 +0.975610 +2.073171
8372260 +1.010742 -0.000977 +0.023926 -3.841464 +0.914634 +2.012195
8372262 +1.002930 -0.003418 +0.025879 -3.841464 +0.792683 +2.073171
8372264 +1.005371 -0.002441 +0.021973 -3.902439 +0.792683 +2.012195
8372266 +1.007324 -0.004395 +0.025879 -4.024390 +0.731707 +2.073171
8372268 +1.009766 -0.005859 +0.031738 -3.841464 +0.914634 +2.378049
8372270 +1.008789 -0.004395 +0.022949 -3.780488 +0.670732 +2.012195
8372272 +1.013672 -0.004883 +0.020508 -3.719512 +0.792683 +2.195122
8372274 +1.006348 -0.011230 +0.033691 -3.719512 +0.975610 +2.073171
8372276 +1.008789 -0.003418 +0.033203 -3.780488 +0.975610 +2.134146
8372278 +1.008301 -0.004883 +0.025391 -3.719512 +0.914634 +2.195122
8372280 +1.004883 -0.014648 +0.025391 -3.597561 +0.975610 +2.134146
8372282 +0.999023 -0.007812 +0.025391 -3.902439 +0.914634 +2.012195
8372284 +1.011230 -0.003418 +0.027832 -3.963415 +0.853659 +2.195122
8372286 +1.007324 -0.012207 +0.024902 -3.780488 +0.792683 +2.134146
8372288 +1.006348 -0.008301 +0.030273 -3.658537 +0.975610 +1.951220
8372290 +1.008789 -0.005371 +0.033203 -3.780488 +0.853659 +2.195122
8372292 +1.005859 -0.004395 +0.022461 -3.902439 +0.914634 +2.012195
8372294 +1.007812 -0.006836 +0.028320 -3.780488 +0.731707 +2.256098
8372296 +1.008301 -0.010742 +0.024414 -3.780488 +0.853659 +2.012195
8372298 +1.007812 -0.010254 +0.032227 -3.902439 +0.853659 +2.073171
8372300 +1.006348 -0.006348 +0.034180 -3.780488 +1.036585 +1.890244
8372302 +1.015137 -0.008789 +0.031738 -3.902439 +0.975610 +2.012195
8372304 +1.011719 -0.004395 +0.022949 -3.780488 +0.914634 +2.195122
8372306 +1.007324 -0.005859 +0.031250 -3.841464 +0.975610 +2.073171
8372308 +1.008301 -0.007812 +0.028320 -3.719512 +0.914634 +1.951220
8372310 +1.003418 -0.007812 +0.033691 -3.780488 +0.731707 +2.134146
8372312 +1.005371 -0.007812 +0.024902 -3.902439 +0.853659 +2.134146
8372314 +1.001953 -0.008789 +0.034668 -3.780488 +0.914634 +2.134146
8372316 +1.005859 -0.009766 +0.020020 -3.719512 +0.731707 +2.012195
8372318 +1.005859 -0.009766 +0.030273 -3.780488 +0.853659 +2.195122
8372320 +1.009277 -0.004395 +0.026855 -3.841464 +0.975610 +2.134146
8372322 +1.011719 -0.008789 +0.032715 -3.719512 +1.036585 +2.012195
8372324 +1.008301 -0.007812 +0.027344 -3.841464 +0.914634 +1.951220
8372326 +1.008301 -0.009277 +0.035645 -3.780488 +1.036585 +2.073171
8372328 +1.005371 -0.008789 +0.031738 -3.841464 +0.914634 +2.256098
8372330 +1.009277 -0.007812 +0.028809 -3.841464 +0.792683 +1.951220
8372332 +1.005371 -0.005371 +0.030273 -3.780488 +0.975610 +2.073171
8372334 +1.006348 -0.003906 +0.029785 -3.719512 +0.853659 +2.012195
8372336 +1.004883 -0.007324 +0.021973 -3.780488 +0.853659 +2.073171
8372338 +1.009277 -0.007324 +0.034180 -3.841464 +0.853659 +2.134146
8372340 +1.008301 -0.006348 +0.033203 -3.780488 +0.975610 +2.073171
8372342 +1.001953 -0.007324 +0.032715 -3.841464 +0.914634 +2.134146
8372344 +1.005859 -0.004883 +0.026855 -3.780488 +0.914634 +2.195122
8372346 +1.003906 -0.007812 +0.022949 -3.841464 +0.975610 +2.256098
8372348 +1.011230 -0.007324 +0.028320 -3.841464 +0.914634 +2.134146
8372350 +1.005371 -0.008301 +0.025391 -3.780488 +0.670732 +2.256098
8372352 +1.009766 -0.004395 +0.031738 -3.841464 +0.792683 +2.134146
8372354 +1.004395 -0.006348 +0.036621 -3.902439 +0.792683 +2.073171
8372356 +1.000977 -0.008301 +0.023438 -3.719512 +0.853659 +2.378049
8372358 +1.009766 -0.001953 +0.038574 -3.780488 +0.792683 +2.073171
8372360 +1.010742 -0.008301 +0.021484 -3.658537 +0.853659 +2.134146
8372362 +1.000488 -0.005371 +0.032715 -3.841464 +0.792683 +2.073171
8372364 +1.004395 -0.003418 +0.029297 -3.780488 +0.853659 +2.073171
8372366 +1.010742 -0.008301 +0.029785 -3.841464 +0.914634 +2.012195
8372368 +1.007812 -0.005371 +0.020996 -3.780488 +0.853659 +2.073171
8372370 +1.007812 -0.006836 +0.030762 -3.780488 +0.914634 +2.073171
8372372 +1.008301 -0.005371 +0.027832 -3.658537 +0.853659 +2.134146
8372374 +1.004395 -0.006836 +0.032227 -3.658537 +0.914634 +2.134146
8372376 +1.007812 -0.002441 +0.029297 -3.963415 +0.975610 +2.134146
8372378 +1.004883 -0.010742 +0.028809 -3.841464 +0.914634 +1.951220
8372380 +1.010254 -0.002441 +0.031738 -3.902439 +0.914634 +2.073171
8372382 +1.003418 -0.005859 +0.034668 -3.719512 +0.975610 +2.256098
8372384 +1.003418 -0.012207 +0.024414 -3.841464 +1.036585 +2.134146
8372386 +1.006836 -0.007812 +0.016113 -3.902439 +0.792683 +2.256098
8372388 +1.004883 +0.000488 +0.027832 -3.780488 +0.792683 +2.073171
8372390 +1.004883 -0.002441 +0.033691 -3.902439 +0.975610 +1.951220
8372392 +1.003906 -0.003906 +0.026855 -3.902439 +0.914634 +2.134146
8372394 +1.004395 -0.000977 +0.030273 -3.902439 +0.914634 +2.073171
8372396 +1.004395 -0.010742 +0.030762 -3.780488 +0.914634 +2.195122
8372398 +1.005859 -0.007324 +0.029297 -3.780488 +0.731707 +2.256098
8372400 +1.008301 -0.016113 +0.025391 -3.780488 +1.036585 +2.073171
8372402 +1.005859 -0.010254 +0.037598 -3.841464 +0.792683 +1.890244
8372404 +1.007812 -0.009766 +0.024902 -3.780488 +0.975610 +1.951220
8372406 +1.003906 -0.011719 +0.034180 -3.719512 +0.853659 +2.012195
8372408 +1.006836 -0.008789 +0.028320 -3.902439 +0.975610 +2.012195
8372410 +1.005859 -0.009766 +0.027832 -3.719512 +0.853659 +2.134146
8372412 +1.017090 -0.008301 +0.028320 -3.658537 +1.036585 +2.195122
8372414 +1.007324 -0.006836 +0.033691 -3.841464 +0.670732 +1.890244
8372416 +1.003418 -0.002930 +0.022949 -3.841464 +0.853659 +2.134146
8372418 +1.005859 -0.007812 +0.024414 -3.841464 +0.792683 +2.195122
8372420 +1.002441 -0.001953 +0.024902 -3.719512 +0.792683 +2.073171
8372422 +1.005371 -0.009277 +0.025391 -3.902439 +0.792683 +2.134146
8372424 +1.005371 -0.002441 +0.031250 -3.780488 +0.914634 +2.012195
8372426 +1.008789 -0.005859 +0.024414 -3.719512 +0.914634 +2.012195
8372428 +1.009766 -0.009766 +0.037598 -3.719512 +0.792683 +2.073171
8372430 +1.007812 -0.005859 +0.038574 -3.841464 +0.731707 +2.134146
8372432 +1.004395 -0.005859 +0.020996 -3.658537 +0.731707 +2.134146
8372434 +1.004395 -0.006836 +0.032715 -3.841464 +0.853659 +1.951220
8372436 +1.008789 -0.003906 +0.033203 -3.719512 +0.792683 +2.073171
8372438 +1.006836 -0.010742 +0.027344 -3.719512 +0.914634 +2.134146
8372440 +1.007812 -0.006836 +0.028320 -3.841464 +0.853659 +2.134146
8372442 +1.008789 -0.008789 +0.028809 -3.780488 +0.914634 +2.134146
8372444 +1.000977 -0.008301 +0.029785 -4.024390 +0.853659 +2.134146
8372446 +0.998047 -0.009277 +0.030273 -4.024390 +0.975610 +2.073171
8372448 +1.001953 +0.001465 +0.030762 -3.780488 +0.853659 +2.195122
8372450 +1.008789 -0.006348 +0.030762 -3.780488 +0.853659 +2.134146
8372452 +1.005859 -0.008301 +0.023438 -3.658537 +0.853659 +2.317073
8372454 +1.011230 -0.004883 +0.031738 -3.780488 +0.853659 +2.195122
8372456 +1.003906 -0.007812 +0.024902 -3.963415 +0.914634 +2.195122
8372458 +1.007324 -0.006836 +0.033691 -3.841464 +0.731707 +1.890244
8372460 +1.010742 -0.006836 +0.032227 -3.902439 +0.853659 +2.195122
8372462 +1.009766 -0.009766 +0.030762 -3.841464 +0.914634 +2.073171
8372464 +1.002441 -0.006836 +0.027832 -3.780488 +0.731707 +2.195122
8372466 +1.010254 -0.003418 +0.022949 -3.719512 +0.975610 +2.317073
8372468 +1.007812 -0.011230 +0.031738 -3.902439 +0.914634 +2.317073
8372471 +1.009766 -0.008301 +0.025391 -3.780488 +0.975610 +1.951220
8372473 +1.004883 -0.006348 +0.028320 -3.719512 +0.975610 +1.951220
8372475 +1.006836 -0.001465 +0.031738 -3.780488 +0.853659 +2.073171
8372477 +1.008301 -0.006348 +0.028320 -3.841464 +1.036585 +2.073171
8372479 +1.005371 -0.007812 +0.037109 -3.719512 +0.975610 +2.134146
8372481 +1.007812 -0.001953 +0.030762 -3.719512 +0.853659 +2.134146
8372483 +1.008301 +0.000000 +0.021973 -3.902439 +0.792683 +2.012195
8372485 +1.004883 -0.007812 +0.025391 -3.719512 +0.731707 +2.073171
8372487 +1.008789 -0.002441 +0.034668 -3.841464 +0.792683 +2.134146
8372489 +1.006348 -0.001465 +0.034668 -3.902439 +0.914634 +2.012195
8372491 +1.009277 -0.001953 +0.031738 -3.841464 +0.853659 +2.012195
8372493 +1.001953 -0.005859 +0.030762 -3.780488 +0.975610 +2.195122
8372495 +1.005859 -0.005859 +0.027344 -3.902439 +0.792683 +2.134146
8372497 +1.000977 -0.006836 +0.033691 -3.841464 +0.853659 +1.951220
8372499 +1.004395 -0.001953 +0.033203 -3.902439 +0.914634 +1.951220
8372501 +1.000488 -0.003418 +0.024414 -3.780488 +0.731707 +2.012195
8372503 +1.002930 -0.005859 +0.033691 -3.963415 +0.975610 +1.951220
8372505 +1.005859 -0.007324 +0.033691 -3.780488 +0.792683 +2.012195
8372507 +1.002441 -0.006836 +0.027832 -3.719512 +0.853659 +2.195122
8372509 +1.005859 -0.006348 +0.026367 -3.902439 +0.975610 +2.195122
8372511 +1.008301 -0.006348 +0.032227 -3.780488 +0.731707 +2.012195
8372513 +0.999512 -0.009766 +0.032715 -3.780488 +0.853659 +2.195122
8372515 +1.007324 -0.005859 +0.027832 -3.780488 +0.914634 +1.951220
8372517 +1.004883 -0.009766 +0.032715 -3.841464 +0.792683 +2.073171
8372519 +1.017578 -0.005859 +0.031738 -3.902439 +0.914634 +2.012195
8372521 +1.003906 -0.008301 +0.020996 -3.780488 +0.792683 +2.256098
8372523 +1.006836 -0.009766 +0.037598 -3.780488 +0.975610 +2.134146
8372525 +1.011230 -0.009277 +0.025879 -3.719512 +0.914634 +2.073171
8372527 +1.006836 -0.007324 +0.036133 -3.780488 +0.853659 +2.134146
8372529 +1.012695 -0.015625 +0.031250 -3.719512 +1.036585 +1.951220
8372531 +1.006836 -0.005859 +0.025391 -3.963415 +0.853659 +2.012195
8372533 +1.007812 -0.004395 +0.030762 -3.719512 +0.853659 +2.256098
8372535 +1.002930 -0.004395 +0.027344 -3.841464 +1.158537 +2.195122
8372537 +1.004883 -0.003418 +0.027344 -3.902439 +1.036585 +1.890244
8372539 +1.007812 -0.006836 +0.029785 -3.719512 +0.914634 +2.195122
8372541 +1.001953 -0.001953 +0.033203 -3.780488 +0.853659 +2.012195
8372543 +1.001953 -0.004395 +0.024902 -3.719512 +0.853659 +2.256098
8372545 +1.005859 -0.003906 +0.031250 -3.841464 +0.731707 +2.134146
8372547 +1.006348 -0.003418 +0.026855 -3.780488 +0.914634 +2.195122
8372549 +1.011719 -0.007324 +0.024902 -3.719512 +0.914634 +2.256098
8372551 +1.010742 -0.008301 +0.032227 -3.902439 +0.853659 +2.134146
8372553 +1.008789 -0.007812 +0.030762 -3.963415 +0.792683 +1.951220
8372555 +1.005859 -0.009766 +0.037598 -3.841464 +0.853659 +2.012195
8372557 +1.004883 -0.007324 +0.034668 -3.719512 +0.975610 +2.134146
8372559 +1.001953 +0.000977 +0.033203 -3.719512 +0.853659 +2.134146
8372561 +1.006348 -0.007324 +0.024414 -3.902439 +0.853659 +2.012195
8372563 +1.004883 +0.000977 +0.038086 -3.841464 +0.853659 +2.195122
8372565 +1.002930 -0.008789 +0.025879 -3.841464 +0.853659 +1.951220
8372567 +1.007812 -0.010742 +0.032227 -3.841464 +0.975610 +2.134146
8372569 +0.999512 -0.006836 +0.024902 -3.658537 +0.975610 +1.951220
8372571 +1.012695 -0.007812 +0.027344 -3.902439 +0.853659 +2.073171
8372573 +1.011230 -0.008301 +0.034668 -3.902439 +0.670732 +2.012195
8372575 +1.001953 -0.008789 +0.027832 -3.902439 +1.036585 +2.012195
8372577 +1.002930 -0.010742 +0.017090 -3.719512 +1.097561 +1.829268
8372579 +1.006836 -0.008301 +0.032715 -3.902439 +0.975610 +2.134146
8372581 +1.004883 -0.005859 +0.027344 -3.841464 +0.914634 +2.012195
8372583 +1.004883 -0.006348 +0.029297 -3.780488 +0.853659 +1.951220
8372585 +1.001465 -0.005859 +0.022949 -3.719512 +1.036585 +2.134146
8372587 +1.007812 -0.005371 +0.032227 -3.780488 +0.792683 +2.256098
8372589 +1.002441 -0.010254 +0.032227 -3.902439 +0.853659 +2.073171
8372591 +1.009766 -0.006348 +0.024902 -3.963415 +0.975610 +2.073171
8372593 +1.010742 -0.000977 +0.027344 -3.719512 +0.792683 +2.073171
8372595 +1.009277 -0.004883 +0.033203 -3.780488 +0.792683 +2.012195
8372597 +1.000977 -0.006836 +0.028809 -3.902439 +0.914634 +2.134146
8372599 +1.007812 -0.006836 +0.030273 -3.780488 +0.853659 +2.134146
8372601 +1.009277 -0.005859 +0.023926 -3.902439 +0.731707 +1.951220
8372603 +1.006348 -0.007812 +0.030273 -3.780488 +0.853659 +2.195122
8372605 +1.013672 -0.004395 +0.024902 -3.719512 +0.975610 +1.890244
8372607 +1.008789 -0.011719 +0.038574 -3.841464 +0.731707 +2.195122
8372609 +1.008789 -0.008789 +0.030762 -3.841464 +0.853659 +1.951220
8372611 +1.003418 -0.007324 +0.026367 -3.841464 +0.975610 +2.073171
8372613 +1.009766 -0.002930 +0.028809 -3.658537 +0.975610 +1.890244
8372615 +1.015137 -0.009766 +0.031738 -3.841464 +0.792683 +2.317073
8372617 +1.007324 -0.003906 +0.025879 -3.719512 +0.914634 +2.195122
8372619 +1.005859 -0.009277 +0.023926 -3.902439 +0.914634 +2.012195
8372621 +1.010254 -0.008301 +0.028809 -3.841464 +0.792683 +1.829268
8372623 +1.006836 -0.000977 +0.020508 -3.780488 +0.853659 +2.012195
8372625 +1.007324 -0.002930 +0.028320 -3.841464 +1.036585 +2.134146
8372627 +1.006348 -0.007812 +0.020508 -3.841464 +0.975610 +2.195122
8372629 +1.010742 -0.003906 +0.023926 -3.658537 +0.670732 +1.951220
8372631 +1.003418 -0.008301 +0.023438 -3.719512 +1.097561 +1.890244
8372633 +1.012695 -0.008301 +0.025391 -3.841464 +0.853659 +2.134146
8372635 +1.003906 -0.003418 +0.028320 -3.841464 +1.036585 +2.073171
8372637 +1.001465 -0.010254 +0.032227 -3.719512 +0.853659 +2.134146
8372639 +1.005859 -0.008301 +0.039062 -3.963415 +0.853659 +2.134146
8372641 +1.007812 -0.012695 +0.022461 -3.780488 +0.975610 +2.012195
8372643 +1.000000 -0.002930 +0.028809 -3.780488 +0.853659 +2.317073
8372645 +1.005859 -0.006348 +0.032715 -3.841464 +0.853659 +1.829268
8372647 +1.006836 -0.005859 +0.035156 -3.902439 +0.792683 +2.134146
8372649 +1.006836 -0.008789 +0.024902 -3.780488 +0.731707 +2.073171
8372651 +1.008789 -0.004395 +0.035645 -3.780488 +0.914634 +2.073171
8372653 +1.001465 -0.009277 +0.038086 -3.780488 +0.731707 +2.134146
8372655 +0.999512 -0.008789 +0.035156 -4.024390 +0.731707 +2.073171
8372657 +1.007324 -0.005371 +0.037109 -3.841464 +0.853659 +2.073171
8372659 +1.007812 +0.000488 +0.034668 -3.841464 +0.731707 +2.134146
8372661 +1.008789 -0.006836 +0.028320 -3.902439 +1.036585 +2.195122
8372663 +1.012695 -0.009277 +0.023926 -3.719512 +0.914634 +2.073171
8372665 +1.006348 -0.005859 +0.028809 -4.024390 +0.914634 +2.073171
8372667 +1.004883 -0.004883 +0.028809 -3.963415 +0.853659 +2.256098
8372669 +1.008301 -0.004395 +0.034668 -3.719512 +0.792683 +1.951220
8372671 +1.005371 -0.009766 +0.018555 -3.780488 +0.853659 +2.134146
8372673 +1.009277 -0.004883 +0.029297 -3.902439 +0.853659 +2.195122
8372675 +1.008301 -0.004395 +0.026855 -3.658537 +0.731707 +1.951220
8372677 +1.005859 -0.004883 +0.023926 -3.841464 +0.853659 +1.890244
8372679 +1.005859 -0.003906 +0.033203 -3.841464 +0.975610 +2.134146
8372681 +1.006836 -0.006836 +0.028809 -3.841464 +0.853659 +2.256098
8372683 +1.012207 -0.003906 +0.027832 -3.841464 +0.853659 +1.890244
8372685 +1.008301 -0.014160 +0.029785 -3.780488 +0.975610 +1.951220
8372687 +1.004883 -0.008301 +0.025879 -3.780488 +0.914634 +2.195122
8372689 +1.004395 -0.008789 +0.037109 -3.963415 +0.914634 +2.012195
8372691 +1.003906 -0.007812 +0.030762 -3.841464 +0.670732 +2.134146
8372694 +1.002441 -0.007324 +0.030273 -3.841464 +0.731707 +2.073171
8372696 +1.007324 -0.007812 +0.030762 -3.841464 +0.792683 +2.195122
8372698 +1.004395 -0.005859 +0.030762 -3.841464 +0.914634 +2.012195
8372700 +1.004883 -0.004395 +0.022949 -3.902439 +0.853659 +2.256098
8372702 +1.006348 -0.006836 +0.028320 -3.780488 +0.792683 +1.951220
8372704 +1.008301 -0.012695 +0.032227 -3.780488 +0.914634 +2.256098
8372706 +1.003418 -0.010742 +0.032715 -3.902439 +0.853659 +2.012195
8372708 +1.009766 -0.011230 +0.028809 -3.658537 +0.853659 +2.317073
8372710 +1.004883 -0.007324 +0.029297 -3.719512 +0.914634 +1.890244
8372712 +1.006836 -0.004883 +0.032227 -3.780488 +0.853659 +2.012195
8372714 +1.007324 -0.004395 +0.033203 -3.963415 +0.853659 +2.256098
8372716 +1.004395 -0.000488 +0.036133 -3.841464 +0.914634 +2.195122
8372718 +1.007812 -0.008301 +0.028320 -3.780488 +1.036585 +2.195122
8372720 +1.009766 -0.008301 +0.033691 -3.963415 +0.853659 +2.012195
8372722 +1.003906 -0.005371 +0.031250 -3.902439 +0.975610 +2.073171
8372724 +1.004395 -0.012695 +0.030762 -3.780488 +0.853659 +2.195122
8372726 +1.007812 -0.000977 +0.029785 -3.902439 +0.792683 +2.073171
8372728 +1.004395 -0.000977 +0.028809 -3.719512 +0.975610 +2.012195
8372730 +1.002441 -0.008301 +0.037598 -3.658537 +0.853659 +2.134146
8372732 +1.010254 -0.002441 +0.021484 -3.841464 +0.914634 +1.890244
8372734 +1.008301 -0.000488 +0.022461 -3.841464 +0.914634 +2.134146
8372736 +1.003418 -0.009277 +0.022461 -3.719512 +0.914634 +2.012195
8372738 +1.008789 -0.012207 +0.030762 -3.780488 +0.853659 +1.951220
8372740 +1.007812 -0.007324 +0.036133 -3.780488 +0.914634 +2.195122
8372742 +1.003906 -0.002441 +0.025879 -3.719512 +0.914634 +2.134146
8372744 +1.004883 -0.003418 +0.026367 -3.780488 +0.792683 +2.134146
8372746 +1.006348 -0.003418 +0.025879 -3.780488 +0.975610 +2.256098
8372748 +1.009277 -0.006348 +0.035645 -3.963415 +0.853659 +2.073171
8372750 +1.011719 -0.006348 +0.036621 -3.902439 +0.914634 +2.195122
8372752 +1.001953 -0.002930 +0.025391 -3.780488 +0.792683 +2.134146
8372754 +1.004883 -0.007812 +0.029785 -3.780488 +0.792683 +2.195122
8372756 +1.008789 -0.006836 +0.028809 -3.719512 +1.036585 +2.195122
8372758 +1.005371 -0.005859 +0.033203 -3.719512 +0.853659 +2.317073
8372760 +1.007812 -0.002441 +0.024414 -3.780488 +1.036585 +2.073171
8372762 +1.008301 -0.002441 +0.021484 -3.780488 +0.792683 +2.012195
8372764 +1.007812 -0.002441 +0.033691 -3.841464 +0.853659 +2.256098
8372766 +1.007812 -0.013184 +0.029785 -3.658537 +0.914634 +1.890244
8372768 +1.002930 -0.007812 +0.034668 -3.841464 +0.792683 +2.317073
8372770 +1.009277 -0.006348 +0.030762 -3.658537 +0.792683 +2.195122
8372772 +1.005371 -0.002441 +0.030273 -3.780488 +0.792683 +2.195122
8372774 +1.003906 -0.000977 +0.027832 -3.780488 +0.975610 +2.134146
8372776 +1.000000 -0.003418 +0.030273 -3.780488 +0.914634 +2.134146
8372778 +1.003906 -0.000977 +0.028809 -3.719512 +0.975610 +2.134146
8372780 +1.003906 -0.011230 +0.030273 -3.841464 +0.853659 +2.073171
8372782 +1.002930 -0.006348 +0.016602 -3.841464 +1.036585 +2.012195
8372784 +1.009766 -0.006348 +0.027344 -3.902439 +0.975610 +2.134146
8372786 +1.009766 -0.003906 +0.032227 -3.841464 +0.792683 +2.256098
8372788 +1.005859 -0.005371 +0.024414 -3.719512 +0.731707 +1.951220
8372790 +1.004395 -0.000488 +0.029785 -3.780488 +0.975610 +1.951220
8372792 +1.004395 -0.005859 +0.029297 -3.963415 +0.853659 +2.256098
8372794 +1.009277 -0.014160 +0.030273 -3.658537 +0.914634 +2.134146
8372796 +1.006348 -0.007812 +0.026855 -3.780488 +0.914634 +1.951220
8372798 +1.005859 -0.012207 +0.020508 -3.902439 +0.975610 +2.073171
8372800 +1.007812 -0.008789 +0.018066 -3.841464 +0.853659 +2.195122
8372802 +1.004395 -0.004395 +0.030762 -3.841464 +0.914634 +2.012195
8372804 +1.008301 -0.003418 +0.026367 -3.780488 +0.853659 +2.012195
8372806 +1.011230 -0.005371 +0.024902 -3.719512 +0.975610 +1.951220
8372808 +1.007324 -0.009277 +0.033203 -3.780488 +0.792683 +2.073171
8372810 +1.002441 -0.005859 +0.029785 -3.780488 +0.975610 +1.890244
8372812 +1.004883 -0.003418 +0.033203 -3.780488 +0.975610 +2.073171
8372814 +1.002930 -0.006836 +0.024414 -3.841464 +0.792683 +2.012195
8372816 +1.006836 -0.003906 +0.024414 -3.841464 +0.914634 +2.134146
8372818 +1.007324 -0.012207 +0.027832 -3.719512 +0.792683 +2.317073
8372820 +1.010254 -0.011230 +0.028809 -3.780488 +0.731707 +2.134146
8372822 +1.012207 -0.006836 +0.033691 -3.780488 +0.853659 +2.256098
8372824 +1.009766 -0.006836 +0.020020 -3.841464 +0.914634 +2.134146
8372826 +1.001953 -0.005371 +0.034180 -3.658537 +1.097561 +1.951220
8372828 +1.008301 -0.003906 +0.032227 -3.841464 +0.792683 +2.073171
8372830 +1.006348 -0.002930 +0.026367 -3.719512 +0.853659 +2.012195
8372832 +1.009766 -0.009277 +0.029785 -3.841464 +0.853659 +2.134146
8372834 +1.007324 -0.006836 +0.038086 -3.780488 +0.731707 +2.012195
8372836 +1.013184 -0.007812 +0.031738 -3.719512 +0.914634 +2.195122
8372838 +1.007324 -0.004883 +0.025879 -3.841464 +1.036585 +2.195122
8372840 +1.013184 -0.008301 +0.032715 -3.780488 +0.914634 +2.256098
8372842 +1.010254 -0.004395 +0.030273 -3.841464 +0.792683 +2.073171
8372844 +1.009277 -0.010254 +0.022461 -3.902439 +0.914634 +1.951220
8372846 +1.009277 -0.008301 +0.025879 -3.841464 +1.036585 +2.256098
8372848 +1.005859 -0.011230 +0.024902 -3.719512 +0.853659 +1.951220
8372850 +1.007812 -0.013184 +0.028320 -3.902439 +0.731707 +2.134146
8372852 +1.005371 -0.008301 +0.031250 -3.841464 +0.975610 +2.317073
8372854 +1.007324 -0.011230 +0.027344 -3.841464 +0.975610 +2.134146
8372856 +1.010742 -0.007324 +0.023926 -3.841464 +0.792683 +2.012195
8372858 +1.008301 -0.001465 +0.026855 -3.902439 +1.097561 +2.256098
8372860 +1.004395 -0.002441 +0.023438 -3.902439 +0.792683 +1.951220
8372862 +1.006348 -0.007812 +0.029785 -3.719512 +0.792683 +2.073171
8372864 +1.011719 -0.007324 +0.033691 -3.841464 +0.914634 +2.134146
8372866 +1.003418 -0.001953 +0.027344 -3.841464 +0.975610 +2.134146
8372868 +1.006836 -0.005371 +0.022461 -3.963415 +0.914634 +2.012195
8372870 +1.005859 -0.010254 +0.019531 -3.841464 +0.853659 +2.134146
8372872 +1.011719 -0.012207 +0.030273 -3.719512 +0.853659 +2.012195
8372874 +1.010742 -0.011719 +0.033691 -3.780488 +0.975610 +2.195122
8372876 +1.005371 -0.008789 +0.031738 -3.902439 +0.975610 +2.195122
8372878 +1.006348 -0.006348 +0.024414 -3.719512 +0.975610 +1.768293
8372880 +1.006348 -0.002441 +0.020508 -3.780488 +0.914634 +2.195122
8372882 +1.003906 -0.006348 +0.037109 -3.780488 +0.853659 +1.951220
8372884 +1.007324 -0.008301 +0.025879 -3.902439 +0.731707 +2.134146
8372886 +1.004883 -0.007812 +0.028320 -3.780488 +0.853659 +2.073171
8372888 +1.006348 -0.005859 +0.031738 -3.902439 +0.853659 +2.195122
8372890 +1.005371 -0.009766 +0.035156 -3.719512 +1.036585 +2.134146
8372892 +1.011230 -0.009766 +0.026367 -3.719512 +0.914634 +2.012195
8372894 +1.004883 -0.006348 +0.026855 -3.841464 +1.097561 +2.195122
8372896 +1.006348 -0.008301 +0.032715 -3.902439 +0.792683 +2.134146
8372898 +1.009277 -0.004395 +0.026855 -3.841464 +0.792683 +1.951220
8372900 +1.009277 -0.006836 +0.033691 -3.658537 +0.914634 +2.256098
8372902 +1.007324 -0.010254 +0.029785 -3.902439 +1.036585 +2.134146
8372904 +1.009277 -0.007812 +0.034668 -3.780488 +0.853659 +2.073171
8372906 +1.012207 -0.004883 +0.027344 -3.841464 +0.670732 +2.256098
8372908 +1.009277 -0.009766 +0.031738 -3.719512 +0.853659 +2.256098
8372910 +1.002441 -0.008301 +0.024414 -3.841464 +0.914634 +1.951220
8372912 +1.007324 -0.002930 +0.022461 -3.841464 +0.853659 +1.951220
8372915 +1.006348 -0.007812 +0.027832 -3.719512 +0.914634 +2.134146
8372917 +1.011230 -0.006348 +0.023438 -3.780488 +0.853659 +2.012195
8372919 +1.008789 -0.004395 +0.029785 -3.902439 +0.914634 +2.073171
8372921 +1.007812 -0.006348 +0.025879 -3.902439 +0.853659 +2.134146
8372923 +1.008301 +0.000488 +0.024902 -3.719512 +0.975610 +2.134146
8372925 +1.007324 -0.006836 +0.023438 -3.719512 +0.792683 +1.829268
8372927 +1.005371 -0.010254 +0.025391 -3.719512 +0.914634 +1.829268
8372929 +1.007812 -0.008301 +0.027832 -3.719512 +0.792683 +2.134146
8372931 +1.003906 -0.007324 +0.032715 -3.658537 +0.792683 +2.012195
8372933 +1.007324 -0.004395 +0.036133 -3.658537 +0.853659 +2.073171
8372935 +1.009277 -0.011230 +0.027832 -3.841464 +0.975610 +2.073171
8372937 +1.003906 -0.005859 +0.031738 -3.780488 +1.036585 +1.951220
8372939 +1.004395 -0.003906 +0.025391 -3.841464 +0.853659 +2.073171
8372941 +1.002930 -0.004395 +0.030273 -3.841464 +0.853659 +1.890244
8372943 +1.014160 -0.012207 +0.032227 -3.719512 +1.036585 +2.012195
8372945 +1.013184 -0.001465 +0.026367 -4.024390 +1.036585 +2.073171
8372947 +1.006348 -0.006836 +0.024902 -3.841464 +0.792683 +2.256098
8372949 +1.007324 -0.008301 +0.034668 -3.780488 +0.853659 +2.134146
8372951 +1.005859 -0.003418 +0.035645 -3.719512 +0.792683 +2.317073
8372953 +1.008301 -0.004883 +0.026855 -3.841464 +0.853659 +2.256098
8372955 +1.006348 -0.005371 +0.026367 -3.658537 +0.914634 +2.073171
8372957 +1.002441 -0.009277 +0.029297 -3.841464 +0.853659 +2.134146
8372959 +1.004883 -0.005859 +0.028320 -3.780488 +0.914634 +2.134146
8372961 +1.004883 -0.005859 +0.030762 -3.719512 +0.731707 +2.012195
8372963 +1.006348 -0.003906 +0.027832 -3.719512 +0.914634 +2.073171
8372965 +1.000977 -0.006348 +0.035156 -3.780488 +0.853659 +2.134146
8372967 +1.007324 -0.008301 +0.022949 -3.902439 +0.914634 +2.073171
8372969 +1.005859 -0.006836 +0.023926 -3.780488 +0.792683 +1.951220
8372971 +1.006348 -0.005859 +0.026367 -3.719512 +0.853659 +2.073171
8372973 +1.011719 -0.011719 +0.024902 -3.597561 +0.914634 +2.073171
8372975 +1.010254 -0.001465 +0.029785 -3.841464 +0.914634 +1.951220
8372977 +1.009277 -0.001953 +0.025391 -3.902439 +0.853659 +2.256098
8372979 +1.008301 -0.006348 +0.030762 -3.780488 +0.914634 +2.073171
8372981 +1.004395 -0.013184 +0.029297 -3.780488 +1.036585 +2.012195
8372983 +1.005371 -0.006348 +0.033203 -3.719512 +1.036585 +1.890244
8372985 +1.007324 -0.002930 +0.034180 -3.719512 +0.975610 +2.195122
8372987 +1.007324 -0.005859 +0.025391 -3.963415 +0.792683 +2.073171
8372989 +0.998535 -0.008789 +0.028809 -3.902439 +0.914634 +1.890244
8372991 +1.008301 -0.008789 +0.026367 -3.780488 +0.853659 +2.134146
8372993 +1.004395 -0.009277 +0.023926 -3.658537 +0.731707 +2.256098
8372995 +1.006836 -0.003906 +0.023926 -3.841464 +0.731707 +1.951220
8372997 +1.009277 -0.004395 +0.032227 -3.658537 +0.792683 +2.134146
8372999 +1.007812 -0.006836 +0.026855 -3.841464 +0.853659 +2.195122
8373001 +1.005859 -0.006836 +0.020020 -3.719512 +0.975610 +2.134146
8373003 +1.008301 -0.010742 +0.030273 -3.719512 +0.975610 +1.951220
8373005 +1.008301 -0.008789 +0.026855 -3.841464 +0.975610 +2.134146
8373007 +1.012695 -0.001953 +0.030762 -3.658537 +0.853659 +2.012195
8373009 +1.010254 -0.003418 +0.021973 -3.841464 +0.853659 +1.951220
8373011 +1.005371 -0.003906 +0.020020 -3.780488 +0.914634 +2.317073
8373013 +1.005371 -0.007812 +0.036621 -3.902439 +0.975610 +2.073171
8373015 +1.001953 -0.005859 +0.023438 -3.719512 +0.975610 +1.951220
8373017 +1.003418 -0.011230 +0.029297 -3.841464 +0.975610 +2.134146
8373019 +1.003418 -0.004883 +0.030762 -3.902439 +0.731707 +2.134146
8373021 +1.012207 -0.003906 +0.025391 -3.719512 +0.853659 +2.073171
8373023 +1.008301 -0.002441 +0.030273 -3.780488 +0.853659 +2.134146
8373025 +1.007812 -0.011230 +0.033691 -3.902439 +1.036585 +2.012195
8373027 +1.007324 -0.003906 +0.019043 -3.841464 +0.914634 +2.256098
8373029 +1.011719 -0.006836 +0.029785 -3.902439 +0.853659 +2.012195
8373031 +1.006348 -0.008301 +0.022461 -3.719512 +0.792683 +2.012195
8373033 +1.006836 -0.010742 +0.035645 -3.780488 +1.036585 +2.378049
8373035 +1.008301 -0.004883 +0.030273 -3.719512 +0.731707 +2.073171
8373037 +1.009277 -0.002930 +0.034668 -3.719512 +0.975610 +2.073171
8373039 +1.004395 -0.007324 +0.038574 -3.841464 +0.853659 +2.134146
8373041 +1.004395 -0.010742 +0.030273 -3.780488 +1.036585 +1.890244
8373043 +1.000488 -0.013184 +0.038574 -3.902439 +0.975610 +2.134146
8373045 +1.008789 -0.007324 +0.029297 -3.841464 +0.914634 +2.195122
8373047 +1.000977 -0.009277 +0.031738 -3.780488 +0.792683 +2.012195
8373049 +1.005371 -0.003906 +0.028320 -3.841464 +0.792683 +2.012195
8373051 +1.008301 -0.005371 +0.022949 -4.024390 +0.792683 +2.195122
8373053 +1.000977 -0.006836 +0.025391 -3.780488 +0.792683 +2.195122
8373055 +1.009766 -0.009766 +0.020508 -3.902439 +0.853659 +2.195122
8373057 +1.008789 -0.004883 +0.034668 -3.902439 +0.975610 +2.256098
8373059 +1.005371 -0.005371 +0.033691 -3.841464 +0.853659 +2.012195
8373061 +1.004883 -0.004395 +0.041504 -3.719512 +0.853659 +2.073171
8373063 +1.008789 -0.006348 +0.032227 -3.963415 +0.792683 +2.073171
8373065 +1.007812 -0.002930 +0.028320 -3.780488 +1.097561 +2.195122
8373067 +1.005371 -0.006836 +0.024902 -3.719512 +0.670732 +1.890244
8373069 +1.005859 -0.002441 +0.031250 -3.536585 +0.975610 +2.256098
8373071 +1.009277 -0.007324 +0.026855 -3.841464 +0.853659 +2.012195
8373073 +1.001465 -0.009277 +0.034668 -3.963415 +0.853659 +2.439024
8373075 +1.002930 -0.006836 +0.032227 -3.719512 +0.792683 +2.073171
8373077 +1.010742 -0.002930 +0.025879 -3.902439 +0.975610 +2.195122
8373079 +1.011719 -0.006836 +0.034180 -3.841464 +0.792683 +2.134146
8373081 +1.007812 -0.008789 +0.019043 -3.780488 +0.792683 +2.378049
8373083 +1.008789 -0.007324 +0.026855 -3.719512 +0.731707 +2.195122
8373085 +1.009766 -0.007324 +0.029297 -3.780488 +0.792683 +2.195122
8373087 +1.010254 -0.009766 +0.029785 -3.963415 +0.975610 +2.073171
8373089 +1.004395 -0.004883 +0.019043 -3.963415 +1.219512 +2.317073
8373091 +1.006348 -0.006836 +0.031250 -3.963415 +0.914634 +2.195122
